wave,session,task,run,subj,name,trial.type,load,numtrials,probe,iti,acc,rt,resp,cresp,time.cue.onset.abs,time.target.onset.abs,time.rt.abs,time.scan.start,trial.num,time.cue.onset,time.target.onset,time.rt,time.block1.on,time.block2.on,time.block3.on,time.block1.off,time.block2.off,time.block3.off,trialtype,trialtype_alt
2,bas,ste,1,DMCC8033964,bas_ste_run1_DMCC8033964,NP,5,3,syrup,2800,1,839,1,1,153750,162549,163388,122942,1,30.808,39.607,40.446,28.408,256.404,484.414,228.02,456.016,684.013,LL5NP,NP_5
2,bas,ste,1,DMCC8033964,bas_ste_run1_DMCC8033964,NN,8,2,scale,1600,1,958,2,2,166949,175748,176706,122942,2,44.007,52.806,53.764,28.408,256.404,484.414,228.02,456.016,684.013,not5NN,NN_8
2,bas,ste,1,DMCC8033964,bas_ste_run1_DMCC8033964,NN,8,2,doll,1600,1,867,2,2,178948,187747,188614,122942,3,56.006,64.805,65.672,28.408,256.404,484.414,228.02,456.016,684.013,not5NN,NN_8
2,bas,ste,1,DMCC8033964,bas_ste_run1_DMCC8033964,NP,5,3,threat,4000,1,941,1,1,190947,199746,200687,122942,4,68.005,76.804,77.745,28.408,256.404,484.414,228.02,456.016,684.013,LL5NP,NP_5
2,bas,ste,1,DMCC8033964,bas_ste_run1_DMCC8033964,NN,6,1,parrot,1600,1,856,2,2,205346,214145,215001,122942,5,82.404,91.203,92.059,28.408,256.404,484.414,228.02,456.016,684.013,not5NN,NN_6
2,bas,ste,1,DMCC8033964,bas_ste_run1_DMCC8033964,NP,8,2,chance,2800,1,796,1,1,217345,226144,226940,122942,6,94.403,103.202,103.998,28.408,256.404,484.414,228.02,456.016,684.013,not5NP,NP_8
2,bas,ste,1,DMCC8033964,bas_ste_run1_DMCC8033964,NN,5,2,blur,2800,1,873,2,2,230544,239343,240216,122942,7,107.602,116.401,117.274,28.408,256.404,484.414,228.02,456.016,684.013,LL5NN,NN_5
2,bas,ste,1,DMCC8033964,bas_ste_run1_DMCC8033964,NP,7,2,rash,4000,1,937,1,1,243743,252556,253493,122942,8,120.801,129.614,130.551,28.408,256.404,484.414,228.02,456.016,684.013,not5NP,NP_7
2,bas,ste,1,DMCC8033964,bas_ste_run1_DMCC8033964,NN,5,2,tube,4000,1,771,2,2,258155,266955,267726,122942,9,135.213,144.013,144.784,28.408,256.404,484.414,228.02,456.016,684.013,LL5NN,NN_5
2,bas,ste,1,DMCC8033964,bas_ste_run1_DMCC8033964,NP,5,3,share,1600,1,823,1,1,272554,281354,282177,122942,10,149.612,158.412,159.235,28.408,256.404,484.414,228.02,456.016,684.013,LL5NP,NP_5
2,bas,ste,1,DMCC8033964,bas_ste_run1_DMCC8033964,NP,7,2,wealth,4000,1,773,1,1,284553,293353,294126,122942,11,161.611,170.411,171.184,28.408,256.404,484.414,228.02,456.016,684.013,not5NP,NP_7
2,bas,ste,1,DMCC8033964,bas_ste_run1_DMCC8033964,NP,8,2,bush,4000,0,1488,2,1,298952,307752,309240,122942,12,176.01,184.81,186.298,28.408,256.404,484.414,228.02,456.016,684.013,not5NP,NP_8
2,bas,ste,1,DMCC8033964,bas_ste_run1_DMCC8033964,NN,7,1,straw,2800,1,791,2,2,313351,322151,322942,122942,13,190.409,199.209,200,28.408,256.404,484.414,228.02,456.016,684.013,not5NN,NN_7
2,bas,ste,1,DMCC8033964,bas_ste_run1_DMCC8033964,NP,6,1,frost,2800,1,954,1,1,326550,335350,336304,122942,14,203.608,212.408,213.362,28.408,256.404,484.414,228.02,456.016,684.013,not5NP,NP_6
2,bas,ste,1,DMCC8033964,bas_ste_run1_DMCC8033964,RN,5,1,quart,1600,1,790,2,2,339749,348549,349339,122942,15,216.807,225.607,226.397,28.408,256.404,484.414,228.02,456.016,684.013,LL5RN,RN_5
2,bas,ste,1,DMCC8033964,bas_ste_run1_DMCC8033964,NN,6,1,taxi,2800,1,724,2,2,381746,390546,391270,122942,16,258.804,267.604,268.328,28.408,256.404,484.414,228.02,456.016,684.013,not5NN,NN_6
2,bas,ste,1,DMCC8033964,bas_ste_run1_DMCC8033964,NN,8,2,liar,2800,1,756,2,2,394945,403745,404501,122942,17,272.003,280.803,281.559,28.408,256.404,484.414,228.02,456.016,684.013,not5NN,NN_8
2,bas,ste,1,DMCC8033964,bas_ste_run1_DMCC8033964,NP,7,2,need,1600,1,1195,1,1,408144,416944,418139,122942,18,285.202,294.002,295.197,28.408,256.404,484.414,228.02,456.016,684.013,not5NP,NP_7
2,bas,ste,1,DMCC8033964,bas_ste_run1_DMCC8033964,NP,7,2,bean,4000,1,932,1,1,420143,428943,429875,122942,19,297.201,306.001,306.933,28.408,256.404,484.414,228.02,456.016,684.013,not5NP,NP_7
2,bas,ste,1,DMCC8033964,bas_ste_run1_DMCC8033964,NP,8,3,bees,1600,1,748,1,1,434556,443355,444103,122942,20,311.614,320.413,321.161,28.408,256.404,484.414,228.02,456.016,684.013,not5NP,NP_8
2,bas,ste,1,DMCC8033964,bas_ste_run1_DMCC8033964,NP,5,3,visit,1600,1,1086,1,1,446555,455354,456440,122942,21,323.613,332.412,333.498,28.408,256.404,484.414,228.02,456.016,684.013,LL5NP,NP_5
2,bas,ste,1,DMCC8033964,bas_ste_run1_DMCC8033964,NN,7,1,logic,1600,1,1196,2,2,458554,467353,468549,122942,22,335.612,344.411,345.607,28.408,256.404,484.414,228.02,456.016,684.013,not5NN,NN_7
2,bas,ste,1,DMCC8033964,bas_ste_run1_DMCC8033964,NP,5,3,people,4000,1,754,1,1,470553,479352,480106,122942,23,347.611,356.41,357.164,28.408,256.404,484.414,228.02,456.016,684.013,LL5NP,NP_5
2,bas,ste,1,DMCC8033964,bas_ste_run1_DMCC8033964,NN,8,2,heater,2800,1,914,2,2,484952,493751,494665,122942,24,362.01,370.809,371.723,28.408,256.404,484.414,228.02,456.016,684.013,not5NN,NN_8
2,bas,ste,1,DMCC8033964,bas_ste_run1_DMCC8033964,RN,5,1,noise,4000,1,942,2,2,498151,506950,507892,122942,25,375.209,384.008,384.95,28.408,256.404,484.414,228.02,456.016,684.013,LL5RN,RN_5
2,bas,ste,1,DMCC8033964,bas_ste_run1_DMCC8033964,NN,5,2,pole,4000,1,850,2,2,512550,521349,522199,122942,26,389.608,398.407,399.257,28.408,256.404,484.414,228.02,456.016,684.013,LL5NN,NN_5
2,bas,ste,1,DMCC8033964,bas_ste_run1_DMCC8033964,NP,8,3,city,2800,1,979,1,1,526949,535748,536727,122942,27,404.007,412.806,413.785,28.408,256.404,484.414,228.02,456.016,684.013,not5NP,NP_8
2,bas,ste,1,DMCC8033964,bas_ste_run1_DMCC8033964,NP,8,3,carpet,2800,1,729,1,1,540148,548947,549676,122942,28,417.206,426.005,426.734,28.408,256.404,484.414,228.02,456.016,684.013,not5NP,NP_8
2,bas,ste,1,DMCC8033964,bas_ste_run1_DMCC8033964,NP,5,3,tags,1600,1,762,1,1,553347,562146,562908,122942,29,430.405,439.204,439.966,28.408,256.404,484.414,228.02,456.016,684.013,LL5NP,NP_5
2,bas,ste,1,DMCC8033964,bas_ste_run1_DMCC8033964,NN,5,2,greed,4000,1,928,2,2,565346,574145,575073,122942,30,442.404,451.203,452.131,28.408,256.404,484.414,228.02,456.016,684.013,LL5NN,NN_5
2,bas,ste,1,DMCC8033964,bas_ste_run1_DMCC8033964,NN,5,2,pans,1600,1,686,2,2,609743,618556,619242,122942,31,486.801,495.614,496.3,28.408,256.404,484.414,228.02,456.016,684.013,LL5NN,NN_5
2,bas,ste,1,DMCC8033964,bas_ste_run1_DMCC8033964,NP,5,3,muscle,2800,1,1359,1,1,621755,630555,631914,122942,32,498.813,507.613,508.972,28.408,256.404,484.414,228.02,456.016,684.013,LL5NP,NP_5
2,bas,ste,1,DMCC8033964,bas_ste_run1_DMCC8033964,NP,8,2,bugs,4000,1,908,1,1,634954,643754,644662,122942,33,512.012,520.812,521.72,28.408,256.404,484.414,228.02,456.016,684.013,not5NP,NP_8
2,bas,ste,1,DMCC8033964,bas_ste_run1_DMCC8033964,RN,5,1,fusion,2800,1,829,2,2,649353,658153,658982,122942,34,526.411,535.211,536.04,28.408,256.404,484.414,228.02,456.016,684.013,LL5RN,RN_5
2,bas,ste,1,DMCC8033964,bas_ste_run1_DMCC8033964,NN,8,2,shell,1600,1,775,2,2,662552,671352,672127,122942,35,539.61,548.41,549.185,28.408,256.404,484.414,228.02,456.016,684.013,not5NN,NN_8
2,bas,ste,1,DMCC8033964,bas_ste_run1_DMCC8033964,NP,7,1,clue,2800,1,682,1,1,674551,683351,684033,122942,36,551.609,560.409,561.091,28.408,256.404,484.414,228.02,456.016,684.013,not5NP,NP_7
2,bas,ste,1,DMCC8033964,bas_ste_run1_DMCC8033964,NP,8,2,wife,1600,1,803,1,1,687750,696550,697353,122942,37,564.808,573.608,574.411,28.408,256.404,484.414,228.02,456.016,684.013,not5NP,NP_8
2,bas,ste,1,DMCC8033964,bas_ste_run1_DMCC8033964,NN,5,2,gift,2800,1,748,2,2,699750,708549,709297,122942,38,576.808,585.607,586.355,28.408,256.404,484.414,228.02,456.016,684.013,LL5NN,NN_5
2,bas,ste,1,DMCC8033964,bas_ste_run1_DMCC8033964,NP,6,1,food,1600,1,881,1,1,712949,721748,722629,122942,39,590.007,598.806,599.687,28.408,256.404,484.414,228.02,456.016,684.013,not5NP,NP_6
2,bas,ste,1,DMCC8033964,bas_ste_run1_DMCC8033964,RN,8,1,ground,4000,1,786,2,2,724948,733747,734533,122942,40,602.006,610.805,611.591,28.408,256.404,484.414,228.02,456.016,684.013,not5RN,RN_8
2,bas,ste,1,DMCC8033964,bas_ste_run1_DMCC8033964,NP,5,3,marker,4000,1,832,1,1,739347,748146,748978,122942,41,616.405,625.204,626.036,28.408,256.404,484.414,228.02,456.016,684.013,LL5NP,NP_5
2,bas,ste,1,DMCC8033964,bas_ste_run1_DMCC8033964,NN,8,2,signal,4000,1,918,2,2,753746,762545,763463,122942,42,630.804,639.603,640.521,28.408,256.404,484.414,228.02,456.016,684.013,not5NN,NN_8
2,bas,ste,1,DMCC8033964,bas_ste_run1_DMCC8033964,NP,5,3,curve,2800,1,1003,1,1,768145,776944,777947,122942,43,645.203,654.002,655.005,28.408,256.404,484.414,228.02,456.016,684.013,LL5NP,NP_5
2,bas,ste,1,DMCC8033964,bas_ste_run1_DMCC8033964,NN,7,2,pledge,4000,1,817,2,2,781344,790143,790960,122942,44,658.402,667.201,668.018,28.408,256.404,484.414,228.02,456.016,684.013,not5NN,NN_7
2,bas,ste,1,DMCC8033964,bas_ste_run1_DMCC8033964,NN,7,2,berry,1600,1,882,2,2,795743,804555,805437,122942,45,672.801,681.613,682.495,28.408,256.404,484.414,228.02,456.016,684.013,not5NN,NN_7
2,bas,ste,2,DMCC8033964,bas_ste_run2_DMCC8033964,NP,5,3,north,4000,1,839,1,1,91752,100551,101390,60934,1,30.818,39.617,40.456,28.418,256.415,484.411,228.03,456.027,684.023,LL5NP,NP_5
2,bas,ste,2,DMCC8033964,bas_ste_run2_DMCC8033964,NP,5,3,ransom,1600,1,834,1,1,106151,114950,115784,60934,2,45.217,54.016,54.85,28.418,256.415,484.411,228.03,456.027,684.023,LL5NP,NP_5
2,bas,ste,2,DMCC8033964,bas_ste_run2_DMCC8033964,NN,5,2,chin,2800,1,869,2,2,118150,126949,127818,60934,3,57.216,66.015,66.884,28.418,256.415,484.411,228.03,456.027,684.023,LL5NN,NN_5
2,bas,ste,2,DMCC8033964,bas_ste_run2_DMCC8033964,NN,6,1,whale,4000,1,849,2,2,131349,140148,140997,60934,4,70.415,79.214,80.063,28.418,256.415,484.411,228.03,456.027,684.023,not5NN,NN_6
2,bas,ste,2,DMCC8033964,bas_ste_run2_DMCC8033964,NN,8,2,cotton,4000,1,790,2,2,145748,154547,155337,60934,5,84.814,93.613,94.403,28.418,256.415,484.411,228.03,456.027,684.023,not5NN,NN_8
2,bas,ste,2,DMCC8033964,bas_ste_run2_DMCC8033964,NP,5,3,wheel,2800,1,1009,1,1,160147,168946,169955,60934,6,99.213,108.012,109.021,28.418,256.415,484.411,228.03,456.027,684.023,LL5NP,NP_5
2,bas,ste,2,DMCC8033964,bas_ste_run2_DMCC8033964,RN,5,1,cabin,1600,1,1075,2,2,173346,182145,183220,60934,7,112.412,121.211,122.286,28.418,256.415,484.411,228.03,456.027,684.023,LL5RN,RN_5
2,bas,ste,2,DMCC8033964,bas_ste_run2_DMCC8033964,NN,5,2,hatch,2800,1,730,2,2,185345,194144,194874,60934,8,124.411,133.21,133.94,28.418,256.415,484.411,228.03,456.027,684.023,LL5NN,NN_5
2,bas,ste,2,DMCC8033964,bas_ste_run2_DMCC8033964,NN,7,1,flame,4000,1,752,2,2,198544,207357,208109,60934,9,137.61,146.423,147.175,28.418,256.415,484.411,228.03,456.027,684.023,not5NN,NN_7
2,bas,ste,2,DMCC8033964,bas_ste_run2_DMCC8033964,NP,6,1,dollar,4000,1,854,1,1,212956,221756,222610,60934,10,152.022,160.822,161.676,28.418,256.415,484.411,228.03,456.027,684.023,not5NP,NP_6
2,bas,ste,2,DMCC8033964,bas_ste_run2_DMCC8033964,NP,8,2,exam,2800,1,732,1,1,227355,236155,236887,60934,11,166.421,175.221,175.953,28.418,256.415,484.411,228.03,456.027,684.023,not5NP,NP_8
2,bas,ste,2,DMCC8033964,bas_ste_run2_DMCC8033964,NN,8,2,lesson,1600,1,835,2,2,240554,249354,250189,60934,12,179.62,188.42,189.255,28.418,256.415,484.411,228.03,456.027,684.023,not5NN,NN_8
2,bas,ste,2,DMCC8033964,bas_ste_run2_DMCC8033964,NP,7,1,teeth,1600,1,622,1,1,252553,261353,261975,60934,13,191.619,200.419,201.041,28.418,256.415,484.411,228.03,456.027,684.023,not5NP,NP_7
2,bas,ste,2,DMCC8033964,bas_ste_run2_DMCC8033964,NP,8,2,kids,2800,0,1312,2,1,264553,273352,274664,60934,14,203.619,212.418,213.73,28.418,256.415,484.411,228.03,456.027,684.023,not5NP,NP_8
2,bas,ste,2,DMCC8033964,bas_ste_run2_DMCC8033964,RN,7,1,jars,1600,1,932,2,2,277752,286551,287483,60934,15,216.818,225.617,226.549,28.418,256.415,484.411,228.03,456.027,684.023,not5RN,RN_7
2,bas,ste,2,DMCC8033964,bas_ste_run2_DMCC8033964,NP,5,3,harp,1600,1,953,1,1,319748,328548,329501,60934,16,258.814,267.614,268.567,28.418,256.415,484.411,228.03,456.027,684.023,LL5NP,NP_5
2,bas,ste,2,DMCC8033964,bas_ste_run2_DMCC8033964,NN,8,2,sled,4000,1,981,2,2,331748,340547,341528,60934,17,270.814,279.613,280.594,28.418,256.415,484.411,228.03,456.027,684.023,not5NN,NN_8
2,bas,ste,2,DMCC8033964,bas_ste_run2_DMCC8033964,RN,8,1,house,4000,1,1094,2,2,346147,354946,356040,60934,18,285.213,294.012,295.106,28.418,256.415,484.411,228.03,456.027,684.023,not5RN,RN_8
2,bas,ste,2,DMCC8033964,bas_ste_run2_DMCC8033964,NP,5,3,store,2800,1,794,1,1,360545,369345,370139,60934,19,299.611,308.411,309.205,28.418,256.415,484.411,228.03,456.027,684.023,LL5NP,NP_5
2,bas,ste,2,DMCC8033964,bas_ste_run2_DMCC8033964,RN,5,1,soil,2800,0,718,1,2,373745,382544,383262,60934,20,312.811,321.61,322.328,28.418,256.415,484.411,228.03,456.027,684.023,LL5RN,RN_5
2,bas,ste,2,DMCC8033964,bas_ste_run2_DMCC8033964,NN,6,1,zebra,1600,1,760,2,2,386944,395756,396516,60934,21,326.01,334.822,335.582,28.418,256.415,484.411,228.03,456.027,684.023,not5NN,NN_6
2,bas,ste,2,DMCC8033964,bas_ste_run2_DMCC8033964,NP,8,2,action,4000,1,770,1,1,398956,407755,408525,60934,22,338.022,346.821,347.591,28.418,256.415,484.411,228.03,456.027,684.023,not5NP,NP_8
2,bas,ste,2,DMCC8033964,bas_ste_run2_DMCC8033964,NN,7,1,poison,1600,1,1200,2,2,413355,422154,423354,60934,23,352.421,361.22,362.42,28.418,256.415,484.411,228.03,456.027,684.023,not5NN,NN_7
2,bas,ste,2,DMCC8033964,bas_ste_run2_DMCC8033964,NN,5,2,heaven,2800,1,862,2,2,425354,434153,435015,60934,24,364.42,373.219,374.081,28.418,256.415,484.411,228.03,456.027,684.023,LL5NN,NN_5
2,bas,ste,2,DMCC8033964,bas_ste_run2_DMCC8033964,NP,8,2,text,2800,1,778,1,1,438553,447352,448130,60934,25,377.619,386.418,387.196,28.418,256.415,484.411,228.03,456.027,684.023,not5NP,NP_8
2,bas,ste,2,DMCC8033964,bas_ste_run2_DMCC8033964,NP,5,3,others,1600,1,1023,1,1,451752,460551,461574,60934,26,390.818,399.617,400.64,28.418,256.415,484.411,228.03,456.027,684.023,LL5NP,NP_5
2,bas,ste,2,DMCC8033964,bas_ste_run2_DMCC8033964,NP,7,2,crime,2800,1,787,1,1,463751,472551,473338,60934,27,402.817,411.617,412.404,28.418,256.415,484.411,228.03,456.027,684.023,not5NP,NP_7
2,bas,ste,2,DMCC8033964,bas_ste_run2_DMCC8033964,NN,5,2,barber,4000,1,849,2,2,476950,485750,486599,60934,28,416.016,424.816,425.665,28.418,256.415,484.411,228.03,456.027,684.023,LL5NN,NN_5
2,bas,ste,2,DMCC8033964,bas_ste_run2_DMCC8033964,NN,8,2,steel,4000,1,1124,2,2,491349,500149,501273,60934,29,430.415,439.215,440.339,28.418,256.415,484.411,228.03,456.027,684.023,not5NN,NN_8
2,bas,ste,2,DMCC8033964,bas_ste_run2_DMCC8033964,NP,7,2,cherry,1600,1,807,1,1,505748,514548,515355,60934,30,444.814,453.614,454.421,28.418,256.415,484.411,228.03,456.027,684.023,not5NP,NP_7
2,bas,ste,2,DMCC8033964,bas_ste_run2_DMCC8033964,NN,7,2,book,4000,1,1001,2,2,547745,556544,557545,60934,31,486.811,495.61,496.611,28.418,256.415,484.411,228.03,456.027,684.023,not5NN,NN_7
2,bas,ste,2,DMCC8033964,bas_ste_run2_DMCC8033964,NP,7,1,photo,1600,1,862,1,1,562144,570957,571819,60934,32,501.21,510.023,510.885,28.418,256.415,484.411,228.03,456.027,684.023,not5NP,NP_7
2,bas,ste,2,DMCC8033964,bas_ste_run2_DMCC8033964,NP,6,1,profit,2800,1,751,1,1,574156,582956,583707,60934,33,513.222,522.022,522.773,28.418,256.415,484.411,228.03,456.027,684.023,not5NP,NP_6
2,bas,ste,2,DMCC8033964,bas_ste_run2_DMCC8033964,NN,7,2,word,1600,1,944,2,2,587356,596155,597099,60934,34,526.422,535.221,536.165,28.418,256.415,484.411,228.03,456.027,684.023,not5NN,NN_7
2,bas,ste,2,DMCC8033964,bas_ste_run2_DMCC8033964,NP,8,3,paper,4000,1,753,1,1,599355,608154,608907,60934,35,538.421,547.22,547.973,28.418,256.415,484.411,228.03,456.027,684.023,not5NP,NP_8
2,bas,ste,2,DMCC8033964,bas_ste_run2_DMCC8033964,NP,8,3,pony,4000,1,756,1,1,613754,622553,623309,60934,36,552.82,561.619,562.375,28.418,256.415,484.411,228.03,456.027,684.023,not5NP,NP_8
2,bas,ste,2,DMCC8033964,bas_ste_run2_DMCC8033964,NP,5,3,fluid,1600,1,718,1,1,628153,636952,637670,60934,37,567.219,576.018,576.736,28.418,256.415,484.411,228.03,456.027,684.023,LL5NP,NP_5
2,bas,ste,2,DMCC8033964,bas_ste_run2_DMCC8033964,NN,8,1,church,2800,0,1510,1,2,640152,648951,650461,60934,38,579.218,588.017,589.527,28.418,256.415,484.411,228.03,456.027,684.023,not5NN,NN_8
2,bas,ste,2,DMCC8033964,bas_ste_run2_DMCC8033964,NN,5,2,story,1600,1,896,2,2,653351,662150,663046,60934,39,592.417,601.216,602.112,28.418,256.415,484.411,228.03,456.027,684.023,LL5NN,NN_5
2,bas,ste,2,DMCC8033964,bas_ste_run2_DMCC8033964,NP,5,3,yard,2800,1,1038,1,1,665350,674149,675187,60934,40,604.416,613.215,614.253,28.418,256.415,484.411,228.03,456.027,684.023,LL5NP,NP_5
2,bas,ste,2,DMCC8033964,bas_ste_run2_DMCC8033964,RN,5,1,owner,1600,1,1509,2,2,678549,687348,688857,60934,41,617.615,626.414,627.923,28.418,256.415,484.411,228.03,456.027,684.023,LL5RN,RN_5
2,bas,ste,2,DMCC8033964,bas_ste_run2_DMCC8033964,NP,5,3,honey,4000,1,1062,1,1,690548,699347,700409,60934,42,629.614,638.413,639.475,28.418,256.415,484.411,228.03,456.027,684.023,LL5NP,NP_5
2,bas,ste,2,DMCC8033964,bas_ste_run2_DMCC8033964,NN,6,1,cows,2800,1,898,2,2,704947,713746,714644,60934,43,644.013,652.812,653.71,28.418,256.415,484.411,228.03,456.027,684.023,not5NN,NN_6
2,bas,ste,2,DMCC8033964,bas_ste_run2_DMCC8033964,NP,8,3,pilot,4000,1,1069,1,1,718146,726945,728014,60934,44,657.212,666.011,667.08,28.418,256.415,484.411,228.03,456.027,684.023,not5NP,NP_8
2,bas,ste,2,DMCC8033964,bas_ste_run2_DMCC8033964,NN,5,2,train,2800,1,879,2,2,732545,741344,742223,60934,45,671.611,680.41,681.289,28.418,256.415,484.411,228.03,456.027,684.023,LL5NN,NN_5
2,pro,ste,1,DMCC8033964,pro_ste_run1_DMCC8033964,NN,2,2,vision,1600,1,826,2,2,122008,130807,131633,91188,1,30.82,39.619,40.445,28.42,256.419,484.418,228.021,456.02,684.019,not5NN,NN_2
2,pro,ste,1,DMCC8033964,pro_ste_run1_DMCC8033964,NP,5,3,park,2800,1,1001,1,1,134007,142806,143807,91188,2,42.819,51.618,52.619,28.42,256.419,484.418,228.021,456.02,684.019,LL5NP,NP_5
2,pro,ste,1,DMCC8033964,pro_ste_run1_DMCC8033964,NN,4,1,idea,1600,1,750,2,2,147206,156006,156756,91188,3,56.018,64.818,65.568,28.42,256.419,484.418,228.021,456.02,684.019,not5NN,NN_4
2,pro,ste,1,DMCC8033964,pro_ste_run1_DMCC8033964,NP,5,3,boiler,1600,1,709,1,1,159205,168005,168714,91188,4,68.017,76.817,77.526,28.42,256.419,484.418,228.021,456.02,684.019,LL5NP,NP_5
2,pro,ste,1,DMCC8033964,pro_ste_run1_DMCC8033964,NP,3,2,ranch,1600,1,658,1,1,171205,180004,180662,91188,5,80.017,88.816,89.474,28.42,256.419,484.418,228.021,456.02,684.019,not5NP,NP_3
2,pro,ste,1,DMCC8033964,pro_ste_run1_DMCC8033964,NN,5,2,deed,2800,1,666,2,2,183204,192003,192669,91188,6,92.016,100.815,101.481,28.42,256.419,484.418,228.021,456.02,684.019,LL5NN,NN_5
2,pro,ste,1,DMCC8033964,pro_ste_run1_DMCC8033964,NN,2,2,access,4000,1,595,2,2,196403,205203,205798,91188,7,105.215,114.015,114.61,28.42,256.419,484.418,228.021,456.02,684.019,not5NN,NN_2
2,pro,ste,1,DMCC8033964,pro_ste_run1_DMCC8033964,NP,4,1,ways,4000,1,790,1,1,210802,219602,220392,91188,8,119.614,128.414,129.204,28.42,256.419,484.418,228.021,456.02,684.019,not5NP,NP_4
2,pro,ste,1,DMCC8033964,pro_ste_run1_DMCC8033964,RN,5,1,keeper,2800,1,1342,2,2,225201,234001,235343,91188,9,134.013,142.813,144.155,28.42,256.419,484.418,228.021,456.02,684.019,LL5RN,RN_5
2,pro,ste,1,DMCC8033964,pro_ste_run1_DMCC8033964,NN,5,2,item,4000,1,706,2,2,238401,247200,247906,91188,10,147.213,156.012,156.718,28.42,256.419,484.418,228.021,456.02,684.019,LL5NN,NN_5
2,pro,ste,1,DMCC8033964,pro_ste_run1_DMCC8033964,NN,3,1,hope,4000,1,1111,2,2,252800,261599,262710,91188,11,161.612,170.411,171.522,28.42,256.419,484.418,228.021,456.02,684.019,not5NN,NN_3
2,pro,ste,1,DMCC8033964,pro_ste_run1_DMCC8033964,NP,5,3,parent,1600,1,1118,1,1,267199,275998,277116,91188,12,176.011,184.81,185.928,28.42,256.419,484.418,228.021,456.02,684.019,LL5NP,NP_5
2,pro,ste,1,DMCC8033964,pro_ste_run1_DMCC8033964,NP,2,2,dryer,2800,1,531,1,1,279198,287997,288528,91188,13,188.01,196.809,197.34,28.42,256.419,484.418,228.021,456.02,684.019,not5NP,NP_2
2,pro,ste,1,DMCC8033964,pro_ste_run1_DMCC8033964,NP,2,2,suit,2800,1,565,1,1,292397,301210,301775,91188,14,201.209,210.022,210.587,28.42,256.419,484.418,228.021,456.02,684.019,not5NP,NP_2
2,pro,ste,1,DMCC8033964,pro_ste_run1_DMCC8033964,NP,3,2,nail,4000,1,757,1,1,305610,314409,315166,91188,15,214.422,223.221,223.978,28.42,256.419,484.418,228.021,456.02,684.019,not5NP,NP_3
2,pro,ste,1,DMCC8033964,pro_ste_run1_DMCC8033964,NP,5,3,menu,2800,1,975,1,1,350007,358806,359781,91188,16,258.819,267.618,268.593,28.42,256.419,484.418,228.021,456.02,684.019,LL5NP,NP_5
2,pro,ste,1,DMCC8033964,pro_ste_run1_DMCC8033964,NN,5,2,rage,2800,1,723,2,2,363206,372006,372729,91188,17,272.018,280.818,281.541,28.42,256.419,484.418,228.021,456.02,684.019,LL5NN,NN_5
2,pro,ste,1,DMCC8033964,pro_ste_run1_DMCC8033964,NN,2,2,laser,4000,1,753,2,2,376405,385205,385958,91188,18,285.217,294.017,294.77,28.42,256.419,484.418,228.021,456.02,684.019,not5NN,NN_2
2,pro,ste,1,DMCC8033964,pro_ste_run1_DMCC8033964,NP,2,3,wool,4000,1,723,1,1,390804,399604,400327,91188,19,299.616,308.416,309.139,28.42,256.419,484.418,228.021,456.02,684.019,not5NP,NP_2
2,pro,ste,1,DMCC8033964,pro_ste_run1_DMCC8033964,NP,5,3,color,2800,1,990,1,1,405204,414003,414993,91188,20,314.016,322.815,323.805,28.42,256.419,484.418,228.021,456.02,684.019,LL5NP,NP_5
2,pro,ste,1,DMCC8033964,pro_ste_run1_DMCC8033964,NP,3,2,saint,1600,1,808,1,1,418403,427202,428010,91188,21,327.215,336.014,336.822,28.42,256.419,484.418,228.021,456.02,684.019,not5NP,NP_3
2,pro,ste,1,DMCC8033964,pro_ste_run1_DMCC8033964,NN,4,1,critic,4000,1,702,2,2,430402,439201,439903,91188,22,339.214,348.013,348.715,28.42,256.419,484.418,228.021,456.02,684.019,not5NN,NN_4
2,pro,ste,1,DMCC8033964,pro_ste_run1_DMCC8033964,NN,5,2,roses,4000,1,709,2,2,444801,453601,454310,91188,23,353.613,362.413,363.122,28.42,256.419,484.418,228.021,456.02,684.019,LL5NN,NN_5
2,pro,ste,1,DMCC8033964,pro_ste_run1_DMCC8033964,NN,3,1,rumor,2800,1,707,2,2,459200,468000,468707,91188,24,368.012,376.812,377.519,28.42,256.419,484.418,228.021,456.02,684.019,not5NN,NN_3
2,pro,ste,1,DMCC8033964,pro_ste_run1_DMCC8033964,NP,3,2,heel,1600,1,809,1,1,472399,481199,482008,91188,25,381.211,390.011,390.82,28.42,256.419,484.418,228.021,456.02,684.019,not5NP,NP_3
2,pro,ste,1,DMCC8033964,pro_ste_run1_DMCC8033964,RN,5,1,shell,4000,1,1651,2,2,484399,493198,494849,91188,26,393.211,402.01,403.661,28.42,256.419,484.418,228.021,456.02,684.019,LL5RN,RN_5
2,pro,ste,1,DMCC8033964,pro_ste_run1_DMCC8033964,NP,5,3,review,1600,1,1013,1,1,498798,507597,508610,91188,27,407.61,416.409,417.422,28.42,256.419,484.418,228.021,456.02,684.019,LL5NP,NP_5
2,pro,ste,1,DMCC8033964,pro_ste_run1_DMCC8033964,NN,2,2,rash,1600,1,694,2,2,510797,519610,520304,91188,28,419.609,428.422,429.116,28.42,256.419,484.418,228.021,456.02,684.019,not5NN,NN_2
2,pro,ste,1,DMCC8033964,pro_ste_run1_DMCC8033964,NP,2,3,chip,2800,1,711,1,1,522810,531609,532320,91188,29,431.622,440.421,441.132,28.42,256.419,484.418,228.021,456.02,684.019,not5NP,NP_2
2,pro,ste,1,DMCC8033964,pro_ste_run1_DMCC8033964,NP,2,3,parade,1600,1,657,1,1,536009,544808,545465,91188,30,444.821,453.62,454.277,28.42,256.419,484.418,228.021,456.02,684.019,not5NP,NP_2
2,pro,ste,1,DMCC8033964,pro_ste_run1_DMCC8033964,NP,4,1,verse,1600,1,688,1,1,578006,586806,587494,91188,31,486.818,495.618,496.306,28.42,256.419,484.418,228.021,456.02,684.019,not5NP,NP_4
2,pro,ste,1,DMCC8033964,pro_ste_run1_DMCC8033964,NN,3,2,torch,1600,1,697,2,2,590006,598805,599502,91188,32,498.818,507.617,508.314,28.42,256.419,484.418,228.021,456.02,684.019,not5NN,NN_3
2,pro,ste,1,DMCC8033964,pro_ste_run1_DMCC8033964,NN,5,2,deal,1600,1,845,2,2,602005,610804,611649,91188,33,510.817,519.616,520.461,28.42,256.419,484.418,228.021,456.02,684.019,LL5NN,NN_5
2,pro,ste,1,DMCC8033964,pro_ste_run1_DMCC8033964,NP,5,3,clay,2800,1,1303,1,1,614004,622804,624107,91188,34,522.816,531.616,532.919,28.42,256.419,484.418,228.021,456.02,684.019,LL5NP,NP_5
2,pro,ste,1,DMCC8033964,pro_ste_run1_DMCC8033964,NP,5,3,forest,4000,1,766,1,1,627203,636003,636769,91188,35,536.015,544.815,545.581,28.42,256.419,484.418,228.021,456.02,684.019,LL5NP,NP_5
2,pro,ste,1,DMCC8033964,pro_ste_run1_DMCC8033964,NP,3,1,charge,2800,1,871,1,1,641602,650402,651273,91188,36,550.414,559.214,560.085,28.42,256.419,484.418,228.021,456.02,684.019,not5NP,NP_3
2,pro,ste,1,DMCC8033964,pro_ste_run1_DMCC8033964,NN,2,2,moose,4000,1,705,2,2,654802,663601,664306,91188,37,563.614,572.413,573.118,28.42,256.419,484.418,228.021,456.02,684.019,not5NN,NN_2
2,pro,ste,1,DMCC8033964,pro_ste_run1_DMCC8033964,RN,5,1,chest,2800,1,1056,2,2,669201,678000,679056,91188,38,578.013,586.812,587.868,28.42,256.419,484.418,228.021,456.02,684.019,LL5RN,RN_5
2,pro,ste,1,DMCC8033964,pro_ste_run1_DMCC8033964,NP,2,2,paste,1600,1,670,1,1,682400,691199,691869,91188,39,591.212,600.011,600.681,28.42,256.419,484.418,228.021,456.02,684.019,not5NP,NP_2
2,pro,ste,1,DMCC8033964,pro_ste_run1_DMCC8033964,NN,3,2,donor,2800,1,801,2,2,694399,703199,704000,91188,40,603.211,612.011,612.812,28.42,256.419,484.418,228.021,456.02,684.019,not5NN,NN_3
2,pro,ste,1,DMCC8033964,pro_ste_run1_DMCC8033964,NP,5,3,advice,1600,1,681,1,1,707598,716398,717079,91188,41,616.41,625.21,625.891,28.42,256.419,484.418,228.021,456.02,684.019,LL5NP,NP_5
2,pro,ste,1,DMCC8033964,pro_ste_run1_DMCC8033964,NN,2,2,work,4000,1,744,2,2,719598,728397,729141,91188,42,628.41,637.209,637.953,28.42,256.419,484.418,228.021,456.02,684.019,not5NN,NN_2
2,pro,ste,1,DMCC8033964,pro_ste_run1_DMCC8033964,RN,2,1,bags,2800,1,816,2,2,733997,742809,743625,91188,43,642.809,651.621,652.437,28.42,256.419,484.418,228.021,456.02,684.019,not5RN,RN_2
2,pro,ste,1,DMCC8033964,pro_ste_run1_DMCC8033964,NN,5,2,group,4000,1,816,2,2,747209,756009,756825,91188,44,656.021,664.821,665.637,28.42,256.419,484.418,228.021,456.02,684.019,LL5NN,NN_5
2,pro,ste,1,DMCC8033964,pro_ste_run1_DMCC8033964,NP,2,2,guys,4000,1,678,1,1,761608,770408,771086,91188,45,670.42,679.22,679.898,28.42,256.419,484.418,228.021,456.02,684.019,not5NP,NP_2
2,pro,ste,2,DMCC8033964,pro_ste_run2_DMCC8033964,NN,4,1,campus,2800,1,763,2,2,64445,73245,74008,33642,1,30.803,39.603,40.366,28.404,256.403,484.416,228.018,456.017,684.017,not5NN,NN_4
2,pro,ste,2,DMCC8033964,pro_ste_run2_DMCC8033964,NP,5,3,snap,2800,1,1014,1,1,77645,86444,87458,33642,2,44.003,52.802,53.816,28.404,256.403,484.416,228.018,456.017,684.017,LL5NP,NP_5
2,pro,ste,2,DMCC8033964,pro_ste_run2_DMCC8033964,NP,4,1,belief,1600,1,804,1,1,90844,99657,100461,33642,3,57.202,66.015,66.819,28.404,256.403,484.416,228.018,456.017,684.017,not5NP,NP_4
2,pro,ste,2,DMCC8033964,pro_ste_run2_DMCC8033964,NP,3,1,drip,1600,1,793,1,1,102856,111656,112449,33642,4,69.214,78.014,78.807,28.404,256.403,484.416,228.018,456.017,684.017,not5NP,NP_3
2,pro,ste,2,DMCC8033964,pro_ste_run2_DMCC8033964,NP,2,2,bottle,2800,1,681,1,1,114856,123655,124336,33642,5,81.214,90.013,90.694,28.404,256.403,484.416,228.018,456.017,684.017,not5NP,NP_2
2,pro,ste,2,DMCC8033964,pro_ste_run2_DMCC8033964,RN,5,1,level,4000,1,949,2,2,128055,136854,137803,33642,6,94.413,103.212,104.161,28.404,256.403,484.416,228.018,456.017,684.017,LL5RN,RN_5
2,pro,ste,2,DMCC8033964,pro_ste_run2_DMCC8033964,NN,2,2,spice,2800,1,822,2,2,142454,151253,152075,33642,7,108.812,117.611,118.433,28.404,256.403,484.416,228.018,456.017,684.017,not5NN,NN_2
2,pro,ste,2,DMCC8033964,pro_ste_run2_DMCC8033964,NN,2,2,coal,1600,1,692,2,2,155653,164453,165145,33642,8,122.011,130.811,131.503,28.404,256.403,484.416,228.018,456.017,684.017,not5NN,NN_2
2,pro,ste,2,DMCC8033964,pro_ste_run2_DMCC8033964,NN,3,1,film,1600,1,723,2,2,167652,176452,177175,33642,9,134.01,142.81,143.533,28.404,256.403,484.416,228.018,456.017,684.017,not5NN,NN_3
2,pro,ste,2,DMCC8033964,pro_ste_run2_DMCC8033964,RN,3,1,singer,4000,1,960,2,2,179652,188451,189411,33642,10,146.01,154.809,155.769,28.404,256.403,484.416,228.018,456.017,684.017,not5RN,RN_3
2,pro,ste,2,DMCC8033964,pro_ste_run2_DMCC8033964,NN,5,2,herd,1600,1,885,2,2,194051,202850,203735,33642,11,160.409,169.208,170.093,28.404,256.403,484.416,228.018,456.017,684.017,LL5NN,NN_5
2,pro,ste,2,DMCC8033964,pro_ste_run2_DMCC8033964,NP,5,3,flight,4000,1,958,1,1,206050,214850,215808,33642,12,172.408,181.208,182.166,28.404,256.403,484.416,228.018,456.017,684.017,LL5NP,NP_5
2,pro,ste,2,DMCC8033964,pro_ste_run2_DMCC8033964,NP,2,2,quote,2800,1,563,1,1,220449,229249,229812,33642,13,186.807,195.607,196.17,28.404,256.403,484.416,228.018,456.017,684.017,not5NP,NP_2
2,pro,ste,2,DMCC8033964,pro_ste_run2_DMCC8033964,NN,5,2,fury,4000,1,726,2,2,233648,242448,243174,33642,14,200.006,208.806,209.532,28.404,256.403,484.416,228.018,456.017,684.017,LL5NN,NN_5
2,pro,ste,2,DMCC8033964,pro_ste_run2_DMCC8033964,NP,5,3,stroke,4000,1,684,1,1,248047,256847,257531,33642,15,214.405,223.205,223.889,28.404,256.403,484.416,228.018,456.017,684.017,LL5NP,NP_5
2,pro,ste,2,DMCC8033964,pro_ste_run2_DMCC8033964,NP,3,2,gold,2800,1,746,1,1,292445,301244,301990,33642,16,258.803,267.602,268.348,28.404,256.403,484.416,228.018,456.017,684.017,not5NP,NP_3
2,pro,ste,2,DMCC8033964,pro_ste_run2_DMCC8033964,NP,3,2,sailor,4000,1,644,1,1,305644,314457,315101,33642,17,272.002,280.815,281.459,28.404,256.403,484.416,228.018,456.017,684.017,not5NP,NP_3
2,pro,ste,2,DMCC8033964,pro_ste_run2_DMCC8033964,NP,5,3,thing,2800,1,852,1,1,320056,328856,329708,33642,18,286.414,295.214,296.066,28.404,256.403,484.416,228.018,456.017,684.017,LL5NP,NP_5
2,pro,ste,2,DMCC8033964,pro_ste_run2_DMCC8033964,NN,5,2,kids,4000,1,714,2,2,333256,342055,342769,33642,19,299.614,308.413,309.127,28.404,256.403,484.416,228.018,456.017,684.017,LL5NN,NN_5
2,pro,ste,2,DMCC8033964,pro_ste_run2_DMCC8033964,RN,2,1,onion,2800,1,688,2,2,347655,356454,357142,33642,20,314.013,322.812,323.5,28.404,256.403,484.416,228.018,456.017,684.017,not5RN,RN_2
2,pro,ste,2,DMCC8033964,pro_ste_run2_DMCC8033964,NP,5,3,grill,1600,1,643,1,1,360854,369653,370296,33642,21,327.212,336.011,336.654,28.404,256.403,484.416,228.018,456.017,684.017,LL5NP,NP_5
2,pro,ste,2,DMCC8033964,pro_ste_run2_DMCC8033964,NN,4,1,barber,4000,1,654,2,2,372853,381653,382307,33642,22,339.211,348.011,348.665,28.404,256.403,484.416,228.018,456.017,684.017,not5NN,NN_4
2,pro,ste,2,DMCC8033964,pro_ste_run2_DMCC8033964,NN,2,2,flaw,1600,1,706,2,2,387252,396052,396758,33642,23,353.61,362.41,363.116,28.404,256.403,484.416,228.018,456.017,684.017,not5NN,NN_2
2,pro,ste,2,DMCC8033964,pro_ste_run2_DMCC8033964,NN,3,1,grain,2800,1,693,2,2,399252,408051,408744,33642,24,365.61,374.409,375.102,28.404,256.403,484.416,228.018,456.017,684.017,not5NN,NN_3
2,pro,ste,2,DMCC8033964,pro_ste_run2_DMCC8033964,NP,2,2,nerve,4000,1,674,1,1,412451,421250,421924,33642,25,378.809,387.608,388.282,28.404,256.403,484.416,228.018,456.017,684.017,not5NP,NP_2
2,pro,ste,2,DMCC8033964,pro_ste_run2_DMCC8033964,NP,5,3,class,4000,1,778,1,1,426850,435649,436427,33642,26,393.208,402.007,402.785,28.404,256.403,484.416,228.018,456.017,684.017,LL5NP,NP_5
2,pro,ste,2,DMCC8033964,pro_ste_run2_DMCC8033964,NN,2,2,tally,1600,1,660,2,2,441249,450048,450708,33642,27,407.607,416.406,417.066,28.404,256.403,484.416,228.018,456.017,684.017,not5NN,NN_2
2,pro,ste,2,DMCC8033964,pro_ste_run2_DMCC8033964,NP,2,2,photo,1600,1,595,1,1,453248,462048,462643,33642,28,419.606,428.406,429.001,28.404,256.403,484.416,228.018,456.017,684.017,not5NP,NP_2
2,pro,ste,2,DMCC8033964,pro_ste_run2_DMCC8033964,NN,5,2,zebra,1600,1,741,2,2,465247,474047,474788,33642,29,431.605,440.405,441.146,28.404,256.403,484.416,228.018,456.017,684.017,LL5NN,NN_5
2,pro,ste,2,DMCC8033964,pro_ste_run2_DMCC8033964,RN,5,1,pupil,2800,1,733,2,2,477247,486046,486779,33642,30,443.605,452.404,453.137,28.404,256.403,484.416,228.018,456.017,684.017,LL5RN,RN_5
2,pro,ste,2,DMCC8033964,pro_ste_run2_DMCC8033964,NN,2,1,list,4000,1,697,2,2,520444,529257,529954,33642,31,486.802,495.615,496.312,28.404,256.403,484.416,228.018,456.017,684.017,not5NN,NN_2
2,pro,ste,2,DMCC8033964,pro_ste_run2_DMCC8033964,NP,3,1,tissue,1600,1,861,1,1,534856,543656,544517,33642,32,501.214,510.014,510.875,28.404,256.403,484.416,228.018,456.017,684.017,not5NP,NP_3
2,pro,ste,2,DMCC8033964,pro_ste_run2_DMCC8033964,NP,2,3,point,4000,1,645,1,1,546856,555655,556300,33642,33,513.214,522.013,522.658,28.404,256.403,484.416,228.018,456.017,684.017,not5NP,NP_2
2,pro,ste,2,DMCC8033964,pro_ste_run2_DMCC8033964,NN,5,2,output,2800,1,873,2,2,561255,570054,570927,33642,34,527.613,536.412,537.285,28.404,256.403,484.416,228.018,456.017,684.017,LL5NN,NN_5
2,pro,ste,2,DMCC8033964,pro_ste_run2_DMCC8033964,NP,5,3,finger,1600,1,659,1,1,574454,583254,583913,33642,35,540.812,549.612,550.271,28.404,256.403,484.416,228.018,456.017,684.017,LL5NP,NP_5
2,pro,ste,2,DMCC8033964,pro_ste_run2_DMCC8033964,NP,2,3,grace,2800,1,710,1,1,586453,595253,595963,33642,36,552.811,561.611,562.321,28.404,256.403,484.416,228.018,456.017,684.017,not5NP,NP_2
2,pro,ste,2,DMCC8033964,pro_ste_run2_DMCC8033964,NN,3,2,filter,2800,1,691,2,2,599652,608452,609143,33642,37,566.01,574.81,575.501,28.404,256.403,484.416,228.018,456.017,684.017,not5NN,NN_3
2,pro,ste,2,DMCC8033964,pro_ste_run2_DMCC8033964,NP,5,3,click,1600,1,879,1,1,612852,621651,622530,33642,38,579.21,588.009,588.888,28.404,256.403,484.416,228.018,456.017,684.017,LL5NP,NP_5
2,pro,ste,2,DMCC8033964,pro_ste_run2_DMCC8033964,NN,3,2,cows,4000,1,696,2,2,624851,633650,634346,33642,39,591.209,600.008,600.704,28.404,256.403,484.416,228.018,456.017,684.017,not5NN,NN_3
2,pro,ste,2,DMCC8033964,pro_ste_run2_DMCC8033964,RN,5,1,need,2800,1,733,2,2,639250,648050,648783,33642,40,605.608,614.408,615.141,28.404,256.403,484.416,228.018,456.017,684.017,LL5RN,RN_5
2,pro,ste,2,DMCC8033964,pro_ste_run2_DMCC8033964,NP,5,3,void,4000,1,671,1,1,652449,661249,661920,33642,41,618.807,627.607,628.278,28.404,256.403,484.416,228.018,456.017,684.017,LL5NP,NP_5
2,pro,ste,2,DMCC8033964,pro_ste_run2_DMCC8033964,NP,2,3,talent,1600,1,529,1,1,666848,675648,676177,33642,42,633.206,642.006,642.535,28.404,256.403,484.416,228.018,456.017,684.017,not5NP,NP_2
2,pro,ste,2,DMCC8033964,pro_ste_run2_DMCC8033964,NP,4,1,clown,2800,1,739,1,1,678848,687647,688386,33642,43,645.206,654.005,654.744,28.404,256.403,484.416,228.018,456.017,684.017,not5NP,NP_4
2,pro,ste,2,DMCC8033964,pro_ste_run2_DMCC8033964,NN,5,2,signal,4000,1,749,2,2,692047,700846,701595,33642,44,658.405,667.204,667.953,28.404,256.403,484.416,228.018,456.017,684.017,LL5NN,NN_5
2,pro,ste,2,DMCC8033964,pro_ste_run2_DMCC8033964,NN,4,1,grip,1600,1,717,2,2,706446,715245,715962,33642,45,672.804,681.603,682.32,28.404,256.403,484.416,228.018,456.017,684.017,not5NN,NN_4
2,rea,ste,1,DMCC8033964,rea_ste_run1_DMCC8033964,NP,8,2,brow,4000,1,838,1,1,113072,121871,122709,82253,1,30.819,39.618,40.456,28.419,256.416,484.414,228.018,456.029,684.026,not5NP,NP_8
2,rea,ste,1,DMCC8033964,rea_ste_run1_DMCC8033964,RN,5,2,jets,1600,1,655,2,2,127471,136270,136925,82253,2,45.218,54.017,54.672,28.419,256.416,484.414,228.018,456.029,684.026,LL5RN,RN_5
2,rea,ste,1,DMCC8033964,rea_ste_run1_DMCC8033964,NP,5,3,touch,2800,1,798,1,1,139470,148269,149067,82253,3,57.217,66.016,66.814,28.419,256.416,484.414,228.018,456.029,684.026,LL5NP,NP_5
2,rea,ste,1,DMCC8033964,rea_ste_run1_DMCC8033964,NP,5,3,pound,4000,1,833,1,1,152669,161468,162301,82253,4,70.416,79.215,80.048,28.419,256.416,484.414,228.018,456.029,684.026,LL5NP,NP_5
2,rea,ste,1,DMCC8033964,rea_ste_run1_DMCC8033964,RN,7,1,rivals,1600,1,827,2,2,167068,175867,176694,82253,5,84.815,93.614,94.441,28.419,256.416,484.414,228.018,456.029,684.026,not5RN,RN_7
2,rea,ste,1,DMCC8033964,rea_ste_run1_DMCC8033964,NP,6,1,name,1600,1,945,1,1,179067,187867,188812,82253,6,96.814,105.614,106.559,28.419,256.416,484.414,228.018,456.029,684.026,not5NP,NP_6
2,rea,ste,1,DMCC8033964,rea_ste_run1_DMCC8033964,NP,7,2,world,1600,1,794,1,1,191066,199866,200660,82253,7,108.813,117.613,118.407,28.419,256.416,484.414,228.018,456.029,684.026,not5NP,NP_7
2,rea,ste,1,DMCC8033964,rea_ste_run1_DMCC8033964,RN,8,2,marker,1600,1,1021,2,2,203065,211865,212886,82253,8,120.812,129.612,130.633,28.419,256.416,484.414,228.018,456.029,684.026,not5RN,RN_8
2,rea,ste,1,DMCC8033964,rea_ste_run1_DMCC8033964,NP,5,3,wife,2800,1,925,1,1,215065,223864,224789,82253,9,132.812,141.611,142.536,28.419,256.416,484.414,228.018,456.029,684.026,LL5NP,NP_5
2,rea,ste,1,DMCC8033964,rea_ste_run1_DMCC8033964,RN,5,2,paper,4000,1,785,2,2,228264,237063,237848,82253,10,146.011,154.81,155.595,28.419,256.416,484.414,228.018,456.029,684.026,LL5RN,RN_5
2,rea,ste,1,DMCC8033964,rea_ste_run1_DMCC8033964,NN,5,1,chin,4000,1,664,2,2,242663,251475,252139,82253,11,160.41,169.222,169.886,28.419,256.416,484.414,228.018,456.029,684.026,LL5NN,NN_5
2,rea,ste,1,DMCC8033964,rea_ste_run1_DMCC8033964,NP,7,2,grill,2800,1,856,1,1,257075,265874,266730,82253,12,174.822,183.621,184.477,28.419,256.416,484.414,228.018,456.029,684.026,not5NP,NP_7
2,rea,ste,1,DMCC8033964,rea_ste_run1_DMCC8033964,RN,8,2,rhyme,4000,1,906,2,2,270274,279073,279979,82253,13,188.021,196.82,197.726,28.419,256.416,484.414,228.018,456.029,684.026,not5RN,RN_8
2,rea,ste,1,DMCC8033964,rea_ste_run1_DMCC8033964,NP,8,2,goods,2800,0,1145,2,1,284673,293472,294617,82253,14,202.42,211.219,212.364,28.419,256.416,484.414,228.018,456.029,684.026,not5NP,NP_8
2,rea,ste,1,DMCC8033964,rea_ste_run1_DMCC8033964,RN,6,1,reign,2800,1,765,2,2,297872,306672,307437,82253,15,215.619,224.419,225.184,28.419,256.416,484.414,228.018,456.029,684.026,not5RN,RN_6
2,rea,ste,1,DMCC8033964,rea_ste_run1_DMCC8033964,NP,5,3,harbor,4000,1,905,1,1,341069,349868,350773,82253,16,258.816,267.615,268.52,28.419,256.416,484.414,228.018,456.029,684.026,LL5NP,NP_5
2,rea,ste,1,DMCC8033964,rea_ste_run1_DMCC8033964,RN,7,1,boat,1600,1,804,2,2,355468,364267,365071,82253,17,273.215,282.014,282.818,28.419,256.416,484.414,228.018,456.029,684.026,not5RN,RN_7
2,rea,ste,1,DMCC8033964,rea_ste_run1_DMCC8033964,RN,8,2,hour,1600,0,1262,1,2,367467,376267,377529,82253,18,285.214,294.014,295.276,28.419,256.416,484.414,228.018,456.029,684.026,not5RN,RN_8
2,rea,ste,1,DMCC8033964,rea_ste_run1_DMCC8033964,NP,8,3,tongue,2800,1,646,1,1,379466,388266,388912,82253,19,297.213,306.013,306.659,28.419,256.416,484.414,228.018,456.029,684.026,not5NP,NP_8
2,rea,ste,1,DMCC8033964,rea_ste_run1_DMCC8033964,RN,6,1,beam,4000,1,766,2,2,392665,401465,402231,82253,20,310.412,319.212,319.978,28.419,256.416,484.414,228.018,456.029,684.026,not5RN,RN_6
2,rea,ste,1,DMCC8033964,rea_ste_run1_DMCC8033964,NN,5,1,ruler,2800,1,689,2,2,407064,415864,416553,82253,21,324.811,333.611,334.3,28.419,256.416,484.414,228.018,456.029,684.026,LL5NN,NN_5
2,rea,ste,1,DMCC8033964,rea_ste_run1_DMCC8033964,NP,5,3,dryer,1600,1,773,1,1,420264,429063,429836,82253,22,338.011,346.81,347.583,28.419,256.416,484.414,228.018,456.029,684.026,LL5NP,NP_5
2,rea,ste,1,DMCC8033964,rea_ste_run1_DMCC8033964,RN,8,2,jazz,4000,1,785,2,2,432263,441075,441860,82253,23,350.01,358.822,359.607,28.419,256.416,484.414,228.018,456.029,684.026,not5RN,RN_8
2,rea,ste,1,DMCC8033964,rea_ste_run1_DMCC8033964,RN,5,2,blaze,1600,1,628,2,2,446675,455474,456102,82253,24,364.422,373.221,373.849,28.419,256.416,484.414,228.018,456.029,684.026,LL5RN,RN_5
2,rea,ste,1,DMCC8033964,rea_ste_run1_DMCC8033964,NP,8,3,visit,4000,1,1120,1,1,458674,467474,468594,82253,25,376.421,385.221,386.341,28.419,256.416,484.414,228.018,456.029,684.026,not5NP,NP_8
2,rea,ste,1,DMCC8033964,rea_ste_run1_DMCC8033964,RN,5,2,ideals,2800,1,1167,2,2,473073,481873,483040,82253,26,390.82,399.62,400.787,28.419,256.416,484.414,228.018,456.029,684.026,LL5RN,RN_5
2,rea,ste,1,DMCC8033964,rea_ste_run1_DMCC8033964,NP,5,3,plate,2800,1,708,1,1,486272,495072,495780,82253,27,404.019,412.819,413.527,28.419,256.416,484.414,228.018,456.029,684.026,LL5NP,NP_5
2,rea,ste,1,DMCC8033964,rea_ste_run1_DMCC8033964,NP,7,2,spark,4000,1,736,1,1,499471,508271,509007,82253,28,417.218,426.018,426.754,28.419,256.416,484.414,228.018,456.029,684.026,not5NP,NP_7
2,rea,ste,1,DMCC8033964,rea_ste_run1_DMCC8033964,NP,8,3,males,1600,1,808,1,1,513870,522670,523478,82253,29,431.617,440.417,441.225,28.419,256.416,484.414,228.018,456.029,684.026,not5NP,NP_8
2,rea,ste,1,DMCC8033964,rea_ste_run1_DMCC8033964,NP,7,2,setup,2800,1,754,1,1,525869,534669,535423,82253,30,443.616,452.416,453.17,28.419,256.416,484.414,228.018,456.029,684.026,not5NP,NP_7
2,rea,ste,1,DMCC8033964,rea_ste_run1_DMCC8033964,NP,5,3,answer,2800,1,1120,1,1,569066,577866,578986,82253,31,486.813,495.613,496.733,28.419,256.416,484.414,228.018,456.029,684.026,LL5NP,NP_5
2,rea,ste,1,DMCC8033964,rea_ste_run1_DMCC8033964,RN,5,2,hawk,1600,1,1175,2,2,582265,591065,592240,82253,32,500.012,508.812,509.987,28.419,256.416,484.414,228.018,456.029,684.026,LL5RN,RN_5
2,rea,ste,1,DMCC8033964,rea_ste_run1_DMCC8033964,NN,8,1,train,1600,1,762,2,2,594265,603064,603826,82253,33,512.012,520.811,521.573,28.419,256.416,484.414,228.018,456.029,684.026,not5NN,NN_8
2,rea,ste,1,DMCC8033964,rea_ste_run1_DMCC8033964,RN,8,2,poppy,4000,1,767,2,2,606264,615063,615830,82253,34,524.011,532.81,533.577,28.419,256.416,484.414,228.018,456.029,684.026,not5RN,RN_8
2,rea,ste,1,DMCC8033964,rea_ste_run1_DMCC8033964,RN,7,2,wave,4000,1,1083,2,2,620663,629475,630558,82253,35,538.41,547.222,548.305,28.419,256.416,484.414,228.018,456.029,684.026,not5RN,RN_7
2,rea,ste,1,DMCC8033964,rea_ste_run1_DMCC8033964,RN,8,2,days,2800,1,953,2,2,635075,643874,644827,82253,36,552.822,561.621,562.574,28.419,256.416,484.414,228.018,456.029,684.026,not5RN,RN_8
2,rea,ste,1,DMCC8033964,rea_ste_run1_DMCC8033964,RN,7,2,need,2800,1,873,2,2,648274,657074,657947,82253,37,566.021,574.821,575.694,28.419,256.416,484.414,228.018,456.029,684.026,not5RN,RN_7
2,rea,ste,1,DMCC8033964,rea_ste_run1_DMCC8033964,NP,5,3,hose,4000,1,905,1,1,661473,670273,671178,82253,38,579.22,588.02,588.925,28.419,256.416,484.414,228.018,456.029,684.026,LL5NP,NP_5
2,rea,ste,1,DMCC8033964,rea_ste_run1_DMCC8033964,RN,5,2,drip,2800,1,1033,2,2,675872,684672,685705,82253,39,593.619,602.419,603.452,28.419,256.416,484.414,228.018,456.029,684.026,LL5RN,RN_5
2,rea,ste,1,DMCC8033964,rea_ste_run1_DMCC8033964,NN,5,1,finger,4000,1,836,2,2,689071,697871,698707,82253,40,606.818,615.618,616.454,28.419,256.416,484.414,228.018,456.029,684.026,LL5NN,NN_5
2,rea,ste,1,DMCC8033964,rea_ste_run1_DMCC8033964,NP,8,2,charge,1600,1,768,1,1,703470,712270,713038,82253,41,621.217,630.017,630.785,28.419,256.416,484.414,228.018,456.029,684.026,not5NP,NP_8
2,rea,ste,1,DMCC8033964,rea_ste_run1_DMCC8033964,NP,7,1,drum,1600,1,927,1,1,715469,724269,725196,82253,42,633.216,642.016,642.943,28.419,256.416,484.414,228.018,456.029,684.026,not5NP,NP_7
2,rea,ste,1,DMCC8033964,rea_ste_run1_DMCC8033964,NP,5,3,spell,1600,1,986,1,1,727469,736268,737254,82253,43,645.216,654.015,655.001,28.419,256.416,484.414,228.018,456.029,684.026,LL5NP,NP_5
2,rea,ste,1,DMCC8033964,rea_ste_run1_DMCC8033964,NP,6,1,people,4000,1,747,1,1,739468,748267,749014,82253,44,657.215,666.014,666.761,28.419,256.416,484.414,228.018,456.029,684.026,not5NP,NP_6
2,rea,ste,1,DMCC8033964,rea_ste_run1_DMCC8033964,NP,8,2,rattle,2800,1,1019,1,1,753867,762666,763685,82253,45,671.614,680.413,681.432,28.419,256.416,484.414,228.018,456.029,684.026,not5NP,NP_8
2,rea,ste,2,DMCC8033964,rea_ste_run2_DMCC8033964,NN,5,1,food,4000,1,783,2,2,69344,78144,78927,38537,1,30.807,39.607,40.39,28.407,256.405,484.402,228.02,456.017,684.015,LL5NN,NN_5
2,rea,ste,2,DMCC8033964,rea_ste_run2_DMCC8033964,NP,8,2,rider,2800,1,887,1,1,83743,92543,93430,38537,2,45.206,54.006,54.893,28.407,256.405,484.402,228.02,456.017,684.015,not5NP,NP_8
2,rea,ste,2,DMCC8033964,rea_ste_run2_DMCC8033964,RN,8,2,slug,1600,0,1097,1,2,96942,105742,106839,38537,3,58.405,67.205,68.302,28.407,256.405,484.402,228.02,456.017,684.015,not5RN,RN_8
2,rea,ste,2,DMCC8033964,rea_ste_run2_DMCC8033964,RN,8,2,witch,4000,1,991,2,2,108942,117741,118732,38537,4,70.405,79.204,80.195,28.407,256.405,484.402,228.02,456.017,684.015,not5RN,RN_8
2,rea,ste,2,DMCC8033964,rea_ste_run2_DMCC8033964,RN,5,2,stain,1600,1,944,2,2,123341,132140,133084,38537,5,84.804,93.603,94.547,28.407,256.405,484.402,228.02,456.017,684.015,LL5RN,RN_5
2,rea,ste,2,DMCC8033964,rea_ste_run2_DMCC8033964,NN,7,1,herd,2800,1,720,2,2,135340,144139,144859,38537,6,96.803,105.602,106.322,28.407,256.405,484.402,228.02,456.017,684.015,not5NN,NN_7
2,rea,ste,2,DMCC8033964,rea_ste_run2_DMCC8033964,NP,7,1,flag,1600,1,675,1,1,148539,157338,158013,38537,7,110.002,118.801,119.476,28.407,256.405,484.402,228.02,456.017,684.015,not5NP,NP_7
2,rea,ste,2,DMCC8033964,rea_ste_run2_DMCC8033964,RN,6,1,maid,1600,1,1068,2,2,160538,169337,170405,38537,8,122.001,130.8,131.868,28.407,256.405,484.402,228.02,456.017,684.015,not5RN,RN_6
2,rea,ste,2,DMCC8033964,rea_ste_run2_DMCC8033964,NP,6,1,wall,2800,1,1174,1,1,172537,181350,182524,38537,9,134,142.813,143.987,28.407,256.405,484.402,228.02,456.017,684.015,not5NP,NP_6
2,rea,ste,2,DMCC8033964,rea_ste_run2_DMCC8033964,NP,5,3,zipper,1600,1,737,1,1,185749,194549,195286,38537,10,147.212,156.012,156.749,28.407,256.405,484.402,228.02,456.017,684.015,LL5NP,NP_5
2,rea,ste,2,DMCC8033964,rea_ste_run2_DMCC8033964,RN,5,2,pair,4000,1,1181,2,2,197749,206548,207729,38537,11,159.212,168.011,169.192,28.407,256.405,484.402,228.02,456.017,684.015,LL5RN,RN_5
2,rea,ste,2,DMCC8033964,rea_ste_run2_DMCC8033964,NP,8,2,tree,2800,1,794,1,1,212148,220947,221741,38537,12,173.611,182.41,183.204,28.407,256.405,484.402,228.02,456.017,684.015,not5NP,NP_8
2,rea,ste,2,DMCC8033964,rea_ste_run2_DMCC8033964,NP,5,3,photo,4000,1,712,1,1,225347,234146,234858,38537,13,186.81,195.609,196.321,28.407,256.405,484.402,228.02,456.017,684.015,LL5NP,NP_5
2,rea,ste,2,DMCC8033964,rea_ste_run2_DMCC8033964,NP,5,3,girl,2800,1,842,1,1,239746,248545,249387,38537,14,201.209,210.008,210.85,28.407,256.405,484.402,228.02,456.017,684.015,LL5NP,NP_5
2,rea,ste,2,DMCC8033964,rea_ste_run2_DMCC8033964,RN,7,1,quart,4000,1,1357,2,2,252945,261744,263101,38537,15,214.408,223.207,224.564,28.407,256.405,484.402,228.02,456.017,684.015,not5RN,RN_7
2,rea,ste,2,DMCC8033964,rea_ste_run2_DMCC8033964,NN,8,1,rest,2800,1,784,2,2,297342,306141,306925,38537,16,258.805,267.604,268.388,28.407,256.405,484.402,228.02,456.017,684.015,not5NN,NN_8
2,rea,ste,2,DMCC8033964,rea_ste_run2_DMCC8033964,NP,7,2,singer,1600,1,756,1,1,310541,319340,320096,38537,17,272.004,280.803,281.559,28.407,256.405,484.402,228.02,456.017,684.015,not5NP,NP_7
2,rea,ste,2,DMCC8033964,rea_ste_run2_DMCC8033964,RN,8,2,prince,1600,0,978,1,2,322540,331339,332317,38537,18,284.003,292.802,293.78,28.407,256.405,484.402,228.02,456.017,684.015,not5RN,RN_8
2,rea,ste,2,DMCC8033964,rea_ste_run2_DMCC8033964,NP,5,3,pals,4000,1,726,1,1,334539,343338,344064,38537,19,296.002,304.801,305.527,28.407,256.405,484.402,228.02,456.017,684.015,LL5NP,NP_5
2,rea,ste,2,DMCC8033964,rea_ste_run2_DMCC8033964,NP,5,3,cotton,2800,1,712,1,1,348938,357737,358449,38537,20,310.401,319.2,319.912,28.407,256.405,484.402,228.02,456.017,684.015,LL5NP,NP_5
2,rea,ste,2,DMCC8033964,rea_ste_run2_DMCC8033964,NP,5,3,chest,2800,1,1435,1,1,362137,370950,372385,38537,21,323.6,332.413,333.848,28.407,256.405,484.402,228.02,456.017,684.015,LL5NP,NP_5
2,rea,ste,2,DMCC8033964,rea_ste_run2_DMCC8033964,NP,8,2,dawn,4000,1,951,1,1,375349,384149,385100,38537,22,336.812,345.612,346.563,28.407,256.405,484.402,228.02,456.017,684.015,not5NP,NP_8
2,rea,ste,2,DMCC8033964,rea_ste_run2_DMCC8033964,RN,5,2,praise,4000,1,931,2,2,389748,398548,399479,38537,23,351.211,360.011,360.942,28.407,256.405,484.402,228.02,456.017,684.015,LL5RN,RN_5
2,rea,ste,2,DMCC8033964,rea_ste_run2_DMCC8033964,RN,5,2,walker,2800,1,754,2,2,404147,412947,413701,38537,24,365.61,374.41,375.164,28.407,256.405,484.402,228.02,456.017,684.015,LL5RN,RN_5
2,rea,ste,2,DMCC8033964,rea_ste_run2_DMCC8033964,NN,5,1,grass,2800,1,706,2,2,417347,426146,426852,38537,25,378.81,387.609,388.315,28.407,256.405,484.402,228.02,456.017,684.015,LL5NN,NN_5
2,rea,ste,2,DMCC8033964,rea_ste_run2_DMCC8033964,NP,8,2,charm,1600,1,899,1,1,430546,439345,440244,38537,26,392.009,400.808,401.707,28.407,256.405,484.402,228.02,456.017,684.015,not5NP,NP_8
2,rea,ste,2,DMCC8033964,rea_ste_run2_DMCC8033964,RN,8,2,barber,1600,0,1037,1,2,442545,451344,452381,38537,27,404.008,412.807,413.844,28.407,256.405,484.402,228.02,456.017,684.015,not5RN,RN_8
2,rea,ste,2,DMCC8033964,rea_ste_run2_DMCC8033964,RN,6,1,motor,4000,1,718,2,2,454544,463343,464061,38537,28,416.007,424.806,425.524,28.407,256.405,484.402,228.02,456.017,684.015,not5RN,RN_6
2,rea,ste,2,DMCC8033964,rea_ste_run2_DMCC8033964,RN,7,1,east,4000,1,663,2,2,468943,477742,478405,38537,29,430.406,439.205,439.868,28.407,256.405,484.402,228.02,456.017,684.015,not5RN,RN_7
2,rea,ste,2,DMCC8033964,rea_ste_run2_DMCC8033964,NP,7,2,oats,1600,1,1462,1,1,483342,492141,493603,38537,30,444.805,453.604,455.066,28.407,256.405,484.402,228.02,456.017,684.015,not5NP,NP_7
2,rea,ste,2,DMCC8033964,rea_ste_run2_DMCC8033964,NP,8,3,slip,4000,1,1056,1,1,525339,534138,535194,38537,31,486.802,495.601,496.657,28.407,256.405,484.402,228.02,456.017,684.015,not5NP,NP_8
2,rea,ste,2,DMCC8033964,rea_ste_run2_DMCC8033964,RN,7,2,note,1600,1,905,2,2,539738,548537,549442,38537,32,501.201,510,510.905,28.407,256.405,484.402,228.02,456.017,684.015,not5RN,RN_7
2,rea,ste,2,DMCC8033964,rea_ste_run2_DMCC8033964,RN,5,2,tile,2800,1,930,2,2,551737,560550,561480,38537,33,513.2,522.013,522.943,28.407,256.405,484.402,228.02,456.017,684.015,LL5RN,RN_5
2,rea,ste,2,DMCC8033964,rea_ste_run2_DMCC8033964,NP,5,3,winner,2800,1,803,1,1,564949,573749,574552,38537,34,526.412,535.212,536.015,28.407,256.405,484.402,228.02,456.017,684.015,LL5NP,NP_5
2,rea,ste,2,DMCC8033964,rea_ste_run2_DMCC8033964,NN,5,1,flick,1600,1,764,2,2,578149,586948,587712,38537,35,539.612,548.411,549.175,28.407,256.405,484.402,228.02,456.017,684.015,LL5NN,NN_5
2,rea,ste,2,DMCC8033964,rea_ste_run2_DMCC8033964,NP,8,3,glove,1600,1,825,1,1,590148,598947,599772,38537,36,551.611,560.41,561.235,28.407,256.405,484.402,228.02,456.017,684.015,not5NP,NP_8
2,rea,ste,2,DMCC8033964,rea_ste_run2_DMCC8033964,RN,5,2,list,2800,1,731,2,2,602147,610946,611677,38537,37,563.61,572.409,573.14,28.407,256.405,484.402,228.02,456.017,684.015,LL5RN,RN_5
2,rea,ste,2,DMCC8033964,rea_ste_run2_DMCC8033964,NP,5,3,beach,2800,1,797,1,1,615346,624145,624942,38537,38,576.809,585.608,586.405,28.407,256.405,484.402,228.02,456.017,684.015,LL5NP,NP_5
2,rea,ste,2,DMCC8033964,rea_ste_run2_DMCC8033964,NP,5,3,bugs,1600,1,829,1,1,628545,637344,638173,38537,39,590.008,598.807,599.636,28.407,256.405,484.402,228.02,456.017,684.015,LL5NP,NP_5
2,rea,ste,2,DMCC8033964,rea_ste_run2_DMCC8033964,NP,7,1,suit,4000,1,728,1,1,640544,649344,650072,38537,40,602.007,610.807,611.535,28.407,256.405,484.402,228.02,456.017,684.015,not5NP,NP_7
2,rea,ste,2,DMCC8033964,rea_ste_run2_DMCC8033964,RN,8,1,dock,1600,1,793,2,2,654943,663743,664536,38537,41,616.406,625.206,625.999,28.407,256.405,484.402,228.02,456.017,684.015,not5RN,RN_8
2,rea,ste,2,DMCC8033964,rea_ste_run2_DMCC8033964,RN,6,1,folder,4000,1,1179,2,2,666942,675742,676921,38537,42,628.405,637.205,638.384,28.407,256.405,484.402,228.02,456.017,684.015,not5RN,RN_6
2,rea,ste,2,DMCC8033964,rea_ste_run2_DMCC8033964,NP,8,3,owner,4000,1,863,1,1,681341,690141,691004,38537,43,642.804,651.604,652.467,28.407,256.405,484.402,228.02,456.017,684.015,not5NP,NP_8
2,rea,ste,2,DMCC8033964,rea_ste_run2_DMCC8033964,NP,6,1,washer,4000,1,584,1,1,695740,704540,705124,38537,44,657.203,666.003,666.587,28.407,256.405,484.402,228.02,456.017,684.015,not5NP,NP_6
2,rea,ste,2,DMCC8033964,rea_ste_run2_DMCC8033964,RN,7,2,void,2800,1,1193,2,2,710139,718939,720132,38537,45,671.602,680.402,681.595,28.407,256.405,484.402,228.02,456.017,684.015,not5RN,RN_7
3,bas,ste,1,DMCC8033964,bas_ste_run1_DMCC8033964,NP,5,3,syrup,1600,1,531,1,1,136112,144925,145456,105280,1,30.832,39.645,40.176,28.432,256.445,484.445,228.045,456.058,684.045,LL5NP,NP_5
3,bas,ste,1,DMCC8033964,bas_ste_run1_DMCC8033964,NN,8,2,scale,1600,1,710,2,2,148125,156925,157635,105280,2,42.845,51.645,52.355,28.432,256.445,484.445,228.045,456.058,684.045,not5NN,NN_8
3,bas,ste,1,DMCC8033964,bas_ste_run1_DMCC8033964,NN,8,2,doll,1600,1,720,2,2,160125,168925,169645,105280,3,54.845,63.645,64.365,28.432,256.445,484.445,228.045,456.058,684.045,not5NN,NN_8
3,bas,ste,1,DMCC8033964,bas_ste_run1_DMCC8033964,NP,5,3,threat,4000,1,776,1,1,172112,180912,181688,105280,4,66.832,75.632,76.408,28.432,256.445,484.445,228.045,456.058,684.045,LL5NP,NP_5
3,bas,ste,1,DMCC8033964,bas_ste_run1_DMCC8033964,NN,6,1,parrot,4000,1,762,2,2,186525,195325,196087,105280,5,81.245,90.045,90.807,28.432,256.445,484.445,228.045,456.058,684.045,not5NN,NN_6
3,bas,ste,1,DMCC8033964,bas_ste_run1_DMCC8033964,NP,8,2,chance,2800,1,712,1,1,200925,209725,210437,105280,6,95.645,104.445,105.157,28.432,256.445,484.445,228.045,456.058,684.045,not5NP,NP_8
3,bas,ste,1,DMCC8033964,bas_ste_run1_DMCC8033964,NN,5,2,blur,4000,1,776,2,2,214112,222912,223688,105280,7,108.832,117.632,118.408,28.432,256.445,484.445,228.045,456.058,684.045,LL5NN,NN_5
3,bas,ste,1,DMCC8033964,bas_ste_run1_DMCC8033964,NP,7,2,rash,2800,1,623,1,1,228525,237325,237948,105280,8,123.245,132.045,132.668,28.432,256.445,484.445,228.045,456.058,684.045,not5NP,NP_7
3,bas,ste,1,DMCC8033964,bas_ste_run1_DMCC8033964,NN,5,2,tube,2800,1,646,2,2,241725,250525,251171,105280,9,136.445,145.245,145.891,28.432,256.445,484.445,228.045,456.058,684.045,LL5NN,NN_5
3,bas,ste,1,DMCC8033964,bas_ste_run1_DMCC8033964,NP,5,3,share,4000,1,820,1,1,254912,263712,264532,105280,10,149.632,158.432,159.252,28.432,256.445,484.445,228.045,456.058,684.045,LL5NP,NP_5
3,bas,ste,1,DMCC8033964,bas_ste_run1_DMCC8033964,NP,7,2,wealth,1600,1,805,1,1,269325,278125,278930,105280,11,164.045,172.845,173.65,28.432,256.445,484.445,228.045,456.058,684.045,not5NP,NP_7
3,bas,ste,1,DMCC8033964,bas_ste_run1_DMCC8033964,NP,8,2,bush,2800,1,748,1,1,281325,290125,290873,105280,12,176.045,184.845,185.593,28.432,256.445,484.445,228.045,456.058,684.045,not5NP,NP_8
3,bas,ste,1,DMCC8033964,bas_ste_run1_DMCC8033964,NN,7,1,straw,4000,1,805,2,2,294512,303312,304117,105280,13,189.232,198.032,198.837,28.432,256.445,484.445,228.045,456.058,684.045,not5NN,NN_7
3,bas,ste,1,DMCC8033964,bas_ste_run1_DMCC8033964,NP,6,1,frost,1600,1,654,1,1,308925,317725,318379,105280,14,203.645,212.445,213.099,28.432,256.445,484.445,228.045,456.058,684.045,not5NP,NP_6
3,bas,ste,1,DMCC8033964,bas_ste_run1_DMCC8033964,RN,5,1,quart,2800,1,988,2,2,320925,329725,330713,105280,15,215.645,224.445,225.433,28.432,256.445,484.445,228.045,456.058,684.045,LL5RN,RN_5
3,bas,ste,1,DMCC8033964,bas_ste_run1_DMCC8033964,NN,6,1,taxi,1600,1,710,2,2,364125,372912,373622,105280,16,258.845,267.632,268.342,28.432,256.445,484.445,228.045,456.058,684.045,not5NN,NN_6
3,bas,ste,1,DMCC8033964,bas_ste_run1_DMCC8033964,NN,8,2,liar,1600,1,669,2,2,376112,384912,385581,105280,17,270.832,279.632,280.301,28.432,256.445,484.445,228.045,456.058,684.045,not5NN,NN_8
3,bas,ste,1,DMCC8033964,bas_ste_run1_DMCC8033964,NP,7,2,need,1600,1,1001,1,1,388125,396925,397926,105280,18,282.845,291.645,292.646,28.432,256.445,484.445,228.045,456.058,684.045,not5NP,NP_7
3,bas,ste,1,DMCC8033964,bas_ste_run1_DMCC8033964,NP,7,2,bean,4000,0,853,2,1,400125,408925,409778,105280,19,294.845,303.645,304.498,28.432,256.445,484.445,228.045,456.058,684.045,not5NP,NP_7
3,bas,ste,1,DMCC8033964,bas_ste_run1_DMCC8033964,NP,8,3,bees,1600,1,634,1,1,414512,423312,423946,105280,20,309.232,318.032,318.666,28.432,256.445,484.445,228.045,456.058,684.045,not5NP,NP_8
3,bas,ste,1,DMCC8033964,bas_ste_run1_DMCC8033964,NP,5,3,visit,4000,1,962,1,1,426512,435325,436287,105280,21,321.232,330.045,331.007,28.432,256.445,484.445,228.045,456.058,684.045,LL5NP,NP_5
3,bas,ste,1,DMCC8033964,bas_ste_run1_DMCC8033964,NN,7,1,logic,1600,0,958,1,2,440925,449725,450683,105280,22,335.645,344.445,345.403,28.432,256.445,484.445,228.045,456.058,684.045,not5NN,NN_7
3,bas,ste,1,DMCC8033964,bas_ste_run1_DMCC8033964,NP,5,3,people,2800,1,486,1,1,452925,461712,462198,105280,23,347.645,356.432,356.918,28.432,256.445,484.445,228.045,456.058,684.045,LL5NP,NP_5
3,bas,ste,1,DMCC8033964,bas_ste_run1_DMCC8033964,NN,8,2,heater,4000,1,768,2,2,466112,474925,475693,105280,24,360.832,369.645,370.413,28.432,256.445,484.445,228.045,456.058,684.045,not5NN,NN_8
3,bas,ste,1,DMCC8033964,bas_ste_run1_DMCC8033964,RN,5,1,noise,4000,1,879,2,2,480525,489325,490204,105280,25,375.245,384.045,384.924,28.432,256.445,484.445,228.045,456.058,684.045,LL5RN,RN_5
3,bas,ste,1,DMCC8033964,bas_ste_run1_DMCC8033964,NN,5,2,pole,2800,1,752,2,2,494912,503712,504464,105280,26,389.632,398.432,399.184,28.432,256.445,484.445,228.045,456.058,684.045,LL5NN,NN_5
3,bas,ste,1,DMCC8033964,bas_ste_run1_DMCC8033964,NP,8,3,city,4000,1,936,1,1,508125,516925,517861,105280,27,402.845,411.645,412.581,28.432,256.445,484.445,228.045,456.058,684.045,not5NP,NP_8
3,bas,ste,1,DMCC8033964,bas_ste_run1_DMCC8033964,NP,8,3,carpet,2800,1,622,1,1,522525,531325,531947,105280,28,417.245,426.045,426.667,28.432,256.445,484.445,228.045,456.058,684.045,not5NP,NP_8
3,bas,ste,1,DMCC8033964,bas_ste_run1_DMCC8033964,NP,5,3,tags,2800,1,714,1,1,535712,544512,545226,105280,29,430.432,439.232,439.946,28.432,256.445,484.445,228.045,456.058,684.045,LL5NP,NP_5
3,bas,ste,1,DMCC8033964,bas_ste_run1_DMCC8033964,NN,5,2,greed,2800,1,766,2,2,548925,557725,558491,105280,30,443.645,452.445,453.211,28.432,256.445,484.445,228.045,456.058,684.045,LL5NN,NN_5
3,bas,ste,1,DMCC8033964,bas_ste_run1_DMCC8033964,NN,5,2,pans,1600,1,648,2,2,592125,600925,601573,105280,31,486.845,495.645,496.293,28.432,256.445,484.445,228.045,456.058,684.045,LL5NN,NN_5
3,bas,ste,1,DMCC8033964,bas_ste_run1_DMCC8033964,NP,5,3,muscle,2800,1,567,1,1,604125,612925,613492,105280,32,498.845,507.645,508.212,28.432,256.445,484.445,228.045,456.058,684.045,LL5NP,NP_5
3,bas,ste,1,DMCC8033964,bas_ste_run1_DMCC8033964,NP,8,2,bugs,4000,1,1460,1,1,617312,626112,627572,105280,33,512.032,520.832,522.292,28.432,256.445,484.445,228.045,456.058,684.045,not5NP,NP_8
3,bas,ste,1,DMCC8033964,bas_ste_run1_DMCC8033964,RN,5,1,fusion,4000,1,720,2,2,631725,640525,641245,105280,34,526.445,535.245,535.965,28.432,256.445,484.445,228.045,456.058,684.045,LL5RN,RN_5
3,bas,ste,1,DMCC8033964,bas_ste_run1_DMCC8033964,NN,8,2,shell,2800,1,660,2,2,646125,654925,655585,105280,35,540.845,549.645,550.305,28.432,256.445,484.445,228.045,456.058,684.045,not5NN,NN_8
3,bas,ste,1,DMCC8033964,bas_ste_run1_DMCC8033964,NP,7,1,clue,1600,1,717,1,1,659312,668112,668829,105280,36,554.032,562.832,563.549,28.432,256.445,484.445,228.045,456.058,684.045,not5NP,NP_7
3,bas,ste,1,DMCC8033964,bas_ste_run1_DMCC8033964,NP,8,2,wife,1600,1,701,1,1,671325,680125,680826,105280,37,566.045,574.845,575.546,28.432,256.445,484.445,228.045,456.058,684.045,not5NP,NP_8
3,bas,ste,1,DMCC8033964,bas_ste_run1_DMCC8033964,NN,5,2,gift,4000,1,640,2,2,683325,692125,692765,105280,38,578.045,586.845,587.485,28.432,256.445,484.445,228.045,456.058,684.045,LL5NN,NN_5
3,bas,ste,1,DMCC8033964,bas_ste_run1_DMCC8033964,NP,6,1,food,2800,0,1345,2,1,697712,706512,707857,105280,39,592.432,601.232,602.577,28.432,256.445,484.445,228.045,456.058,684.045,not5NP,NP_6
3,bas,ste,1,DMCC8033964,bas_ste_run1_DMCC8033964,RN,8,1,ground,1600,1,1040,2,2,710925,719725,720765,105280,40,605.645,614.445,615.485,28.432,256.445,484.445,228.045,456.058,684.045,not5RN,RN_8
3,bas,ste,1,DMCC8033964,bas_ste_run1_DMCC8033964,NP,5,3,marker,4000,1,658,1,1,722925,731725,732383,105280,41,617.645,626.445,627.103,28.432,256.445,484.445,228.045,456.058,684.045,LL5NP,NP_5
3,bas,ste,1,DMCC8033964,bas_ste_run1_DMCC8033964,NN,8,2,signal,4000,1,830,2,2,737312,746112,746942,105280,42,632.032,640.832,641.662,28.432,256.445,484.445,228.045,456.058,684.045,not5NN,NN_8
3,bas,ste,1,DMCC8033964,bas_ste_run1_DMCC8033964,NP,5,3,curve,2800,1,678,1,1,751725,760525,761203,105280,43,646.445,655.245,655.923,28.432,256.445,484.445,228.045,456.058,684.045,LL5NP,NP_5
3,bas,ste,1,DMCC8033964,bas_ste_run1_DMCC8033964,NN,7,2,pledge,1600,1,736,2,2,764925,773725,774461,105280,44,659.645,668.445,669.181,28.432,256.445,484.445,228.045,456.058,684.045,not5NN,NN_7
3,bas,ste,1,DMCC8033964,bas_ste_run1_DMCC8033964,NN,7,2,berry,2800,1,909,2,2,776925,785712,786621,105280,45,671.645,680.432,681.341,28.432,256.445,484.445,228.045,456.058,684.045,not5NN,NN_7
3,bas,ste,2,DMCC8033964,bas_ste_run2_DMCC8033964,NP,5,3,north,2800,1,707,1,1,70814,79614,80321,39964,1,30.85,39.65,40.357,28.45,256.436,484.45,228.063,456.05,684.063,LL5NP,NP_5
3,bas,ste,2,DMCC8033964,bas_ste_run2_DMCC8033964,NP,5,3,ransom,1600,1,678,1,1,84014,92800,93478,39964,2,44.05,52.836,53.514,28.45,256.436,484.45,228.063,456.05,684.063,LL5NP,NP_5
3,bas,ste,2,DMCC8033964,bas_ste_run2_DMCC8033964,NN,5,2,chin,2800,1,768,2,2,96000,104814,105582,39964,3,56.036,64.85,65.618,28.45,256.436,484.45,228.063,456.05,684.063,LL5NN,NN_5
3,bas,ste,2,DMCC8033964,bas_ste_run2_DMCC8033964,NN,6,1,whale,2800,1,738,2,2,109214,118014,118752,39964,4,69.25,78.05,78.788,28.45,256.436,484.45,228.063,456.05,684.063,not5NN,NN_6
3,bas,ste,2,DMCC8033964,bas_ste_run2_DMCC8033964,NN,8,2,cotton,4000,1,658,2,2,122414,131200,131858,39964,5,82.45,91.236,91.894,28.45,256.436,484.45,228.063,456.05,684.063,not5NN,NN_8
3,bas,ste,2,DMCC8033964,bas_ste_run2_DMCC8033964,NP,5,3,wheel,1600,1,815,1,1,136800,145614,146429,39964,6,96.836,105.65,106.465,28.45,256.436,484.45,228.063,456.05,684.063,LL5NP,NP_5
3,bas,ste,2,DMCC8033964,bas_ste_run2_DMCC8033964,RN,5,1,cabin,2800,0,1069,1,2,148814,157614,158683,39964,7,108.85,117.65,118.719,28.45,256.436,484.45,228.063,456.05,684.063,LL5RN,RN_5
3,bas,ste,2,DMCC8033964,bas_ste_run2_DMCC8033964,NN,5,2,hatch,4000,1,820,2,2,162014,170800,171620,39964,8,122.05,130.836,131.656,28.45,256.436,484.45,228.063,456.05,684.063,LL5NN,NN_5
3,bas,ste,2,DMCC8033964,bas_ste_run2_DMCC8033964,NN,7,1,flame,1600,1,831,2,2,176400,185214,186045,39964,9,136.436,145.25,146.081,28.45,256.436,484.45,228.063,456.05,684.063,not5NN,NN_7
3,bas,ste,2,DMCC8033964,bas_ste_run2_DMCC8033964,NP,6,1,dollar,4000,1,837,1,1,188414,197214,198051,39964,10,148.45,157.25,158.087,28.45,256.436,484.45,228.063,456.05,684.063,not5NP,NP_6
3,bas,ste,2,DMCC8033964,bas_ste_run2_DMCC8033964,NP,8,2,exam,1600,1,607,1,1,202814,211600,212207,39964,11,162.85,171.636,172.243,28.45,256.436,484.45,228.063,456.05,684.063,not5NP,NP_8
3,bas,ste,2,DMCC8033964,bas_ste_run2_DMCC8033964,NN,8,2,lesson,1600,1,891,2,2,214800,223600,224491,39964,12,174.836,183.636,184.527,28.45,256.436,484.45,228.063,456.05,684.063,not5NN,NN_8
3,bas,ste,2,DMCC8033964,bas_ste_run2_DMCC8033964,NP,7,1,teeth,4000,1,774,1,1,226814,235614,236388,39964,13,186.85,195.65,196.424,28.45,256.436,484.45,228.063,456.05,684.063,not5NP,NP_7
3,bas,ste,2,DMCC8033964,bas_ste_run2_DMCC8033964,NP,8,2,kids,4000,1,1058,1,1,241214,250014,251072,39964,14,201.25,210.05,211.108,28.45,256.436,484.45,228.063,456.05,684.063,not5NP,NP_8
3,bas,ste,2,DMCC8033964,bas_ste_run2_DMCC8033964,RN,7,1,jars,2800,1,924,2,2,255600,264400,265324,39964,15,215.636,224.436,225.36,28.45,256.436,484.45,228.063,456.05,684.063,not5RN,RN_7
3,bas,ste,2,DMCC8033964,bas_ste_run2_DMCC8033964,NP,5,3,harp,1600,1,856,1,1,298800,307614,308470,39964,16,258.836,267.65,268.506,28.45,256.436,484.45,228.063,456.05,684.063,LL5NP,NP_5
3,bas,ste,2,DMCC8033964,bas_ste_run2_DMCC8033964,NN,8,2,sled,4000,1,796,2,2,310814,319614,320410,39964,17,270.85,279.65,280.446,28.45,256.436,484.45,228.063,456.05,684.063,not5NN,NN_8
3,bas,ste,2,DMCC8033964,bas_ste_run2_DMCC8033964,RN,8,1,house,4000,1,1408,2,2,325214,334000,335408,39964,18,285.25,294.036,295.444,28.45,256.436,484.45,228.063,456.05,684.063,not5RN,RN_8
3,bas,ste,2,DMCC8033964,bas_ste_run2_DMCC8033964,NP,5,3,store,2800,1,593,1,1,339600,348414,349007,39964,19,299.636,308.45,309.043,28.45,256.436,484.45,228.063,456.05,684.063,LL5NP,NP_5
3,bas,ste,2,DMCC8033964,bas_ste_run2_DMCC8033964,RN,5,1,soil,4000,1,1231,2,2,352814,361614,362845,39964,20,312.85,321.65,322.881,28.45,256.436,484.45,228.063,456.05,684.063,LL5RN,RN_5
3,bas,ste,2,DMCC8033964,bas_ste_run2_DMCC8033964,NN,6,1,zebra,1600,1,743,2,2,367214,376000,376743,39964,21,327.25,336.036,336.779,28.45,256.436,484.45,228.063,456.05,684.063,not5NN,NN_6
3,bas,ste,2,DMCC8033964,bas_ste_run2_DMCC8033964,NP,8,2,action,4000,1,750,1,1,379200,388014,388764,39964,22,339.236,348.05,348.8,28.45,256.436,484.45,228.063,456.05,684.063,not5NP,NP_8
3,bas,ste,2,DMCC8033964,bas_ste_run2_DMCC8033964,NN,7,1,poison,2800,1,927,2,2,393614,402414,403341,39964,23,353.65,362.45,363.377,28.45,256.436,484.45,228.063,456.05,684.063,not5NN,NN_7
3,bas,ste,2,DMCC8033964,bas_ste_run2_DMCC8033964,NN,5,2,heaven,1600,1,749,2,2,406814,415600,416349,39964,24,366.85,375.636,376.385,28.45,256.436,484.45,228.063,456.05,684.063,LL5NN,NN_5
3,bas,ste,2,DMCC8033964,bas_ste_run2_DMCC8033964,NP,8,2,text,1600,1,680,1,1,418800,427614,428294,39964,25,378.836,387.65,388.33,28.45,256.436,484.45,228.063,456.05,684.063,not5NP,NP_8
3,bas,ste,2,DMCC8033964,bas_ste_run2_DMCC8033964,NP,5,3,others,2800,1,1505,1,1,430814,439614,441119,39964,26,390.85,399.65,401.155,28.45,256.436,484.45,228.063,456.05,684.063,LL5NP,NP_5
3,bas,ste,2,DMCC8033964,bas_ste_run2_DMCC8033964,NP,7,2,crime,2800,1,1298,1,1,444014,452814,454112,39964,27,404.05,412.85,414.148,28.45,256.436,484.45,228.063,456.05,684.063,not5NP,NP_7
3,bas,ste,2,DMCC8033964,bas_ste_run2_DMCC8033964,NN,5,2,barber,1600,1,820,2,2,457200,466000,466820,39964,28,417.236,426.036,426.856,28.45,256.436,484.45,228.063,456.05,684.063,LL5NN,NN_5
3,bas,ste,2,DMCC8033964,bas_ste_run2_DMCC8033964,NN,8,2,steel,2800,0,957,1,2,469214,478014,478971,39964,29,429.25,438.05,439.007,28.45,256.436,484.45,228.063,456.05,684.063,not5NN,NN_8
3,bas,ste,2,DMCC8033964,bas_ste_run2_DMCC8033964,NP,7,2,cherry,4000,1,693,1,1,482414,491214,491907,39964,30,442.45,451.25,451.943,28.45,256.436,484.45,228.063,456.05,684.063,not5NP,NP_7
3,bas,ste,2,DMCC8033964,bas_ste_run2_DMCC8033964,NN,7,2,book,1600,1,875,2,2,526814,535600,536475,39964,31,486.85,495.636,496.511,28.45,256.436,484.45,228.063,456.05,684.063,not5NN,NN_7
3,bas,ste,2,DMCC8033964,bas_ste_run2_DMCC8033964,NP,7,1,photo,1600,1,1288,1,1,538800,547600,548888,39964,32,498.836,507.636,508.924,28.45,256.436,484.45,228.063,456.05,684.063,not5NP,NP_7
3,bas,ste,2,DMCC8033964,bas_ste_run2_DMCC8033964,NP,6,1,profit,4000,1,975,1,1,550814,559614,560589,39964,33,510.85,519.65,520.625,28.45,256.436,484.45,228.063,456.05,684.063,not5NP,NP_6
3,bas,ste,2,DMCC8033964,bas_ste_run2_DMCC8033964,NN,7,2,word,2800,1,725,2,2,565214,574014,574739,39964,34,525.25,534.05,534.775,28.45,256.436,484.45,228.063,456.05,684.063,not5NN,NN_7
3,bas,ste,2,DMCC8033964,bas_ste_run2_DMCC8033964,NP,8,3,paper,4000,1,636,1,1,578400,587200,587836,39964,35,538.436,547.236,547.872,28.45,256.436,484.45,228.063,456.05,684.063,not5NP,NP_8
3,bas,ste,2,DMCC8033964,bas_ste_run2_DMCC8033964,NP,8,3,pony,4000,1,569,1,1,592814,601614,602183,39964,36,552.85,561.65,562.219,28.45,256.436,484.45,228.063,456.05,684.063,not5NP,NP_8
3,bas,ste,2,DMCC8033964,bas_ste_run2_DMCC8033964,NP,5,3,fluid,1600,1,672,1,1,607214,616014,616686,39964,37,567.25,576.05,576.722,28.45,256.436,484.45,228.063,456.05,684.063,LL5NP,NP_5
3,bas,ste,2,DMCC8033964,bas_ste_run2_DMCC8033964,NN,8,1,church,1600,1,927,2,2,619200,628000,628927,39964,38,579.236,588.036,588.963,28.45,256.436,484.45,228.063,456.05,684.063,not5NN,NN_8
3,bas,ste,2,DMCC8033964,bas_ste_run2_DMCC8033964,NN,5,2,story,2800,1,934,2,2,631214,640014,640948,39964,39,591.25,600.05,600.984,28.45,256.436,484.45,228.063,456.05,684.063,LL5NN,NN_5
3,bas,ste,2,DMCC8033964,bas_ste_run2_DMCC8033964,NP,5,3,yard,4000,1,743,1,1,644414,653214,653957,39964,40,604.45,613.25,613.993,28.45,256.436,484.45,228.063,456.05,684.063,LL5NP,NP_5
3,bas,ste,2,DMCC8033964,bas_ste_run2_DMCC8033964,RN,5,1,owner,2800,1,835,2,2,658800,667600,668435,39964,41,618.836,627.636,628.471,28.45,256.436,484.45,228.063,456.05,684.063,LL5RN,RN_5
3,bas,ste,2,DMCC8033964,bas_ste_run2_DMCC8033964,NP,5,3,honey,4000,1,662,1,1,672014,680814,681476,39964,42,632.05,640.85,641.512,28.45,256.436,484.45,228.063,456.05,684.063,LL5NP,NP_5
3,bas,ste,2,DMCC8033964,bas_ste_run2_DMCC8033964,NN,6,1,cows,1600,1,745,2,2,686414,695214,695959,39964,43,646.45,655.25,655.995,28.45,256.436,484.45,228.063,456.05,684.063,not5NN,NN_6
3,bas,ste,2,DMCC8033964,bas_ste_run2_DMCC8033964,NP,8,3,pilot,2800,1,1347,1,1,698400,707200,708547,39964,44,658.436,667.236,668.583,28.45,256.436,484.45,228.063,456.05,684.063,not5NP,NP_8
3,bas,ste,2,DMCC8033964,bas_ste_run2_DMCC8033964,NN,5,2,train,2800,1,641,2,2,711614,720414,721055,39964,45,671.65,680.45,681.091,28.45,256.436,484.45,228.063,456.05,684.063,LL5NN,NN_5
3,pro,ste,1,DMCC8033964,pro_ste_run1_DMCC8033964,NN,2,2,vision,1600,1,752,2,2,106707,115507,116259,75871,1,30.836,39.636,40.388,28.436,256.423,484.436,228.023,456.036,684.036,not5NN,NN_2
3,pro,ste,1,DMCC8033964,pro_ste_run1_DMCC8033964,NP,5,3,park,1600,1,737,1,1,118707,127507,128244,75871,2,42.836,51.636,52.373,28.436,256.423,484.436,228.023,456.036,684.036,LL5NP,NP_5
3,pro,ste,1,DMCC8033964,pro_ste_run1_DMCC8033964,NN,4,1,idea,4000,1,827,2,2,130694,139494,140321,75871,3,54.823,63.623,64.45,28.436,256.423,484.436,228.023,456.036,684.036,not5NN,NN_4
3,pro,ste,1,DMCC8033964,pro_ste_run1_DMCC8033964,NP,5,3,boiler,2800,1,803,1,1,145107,153907,154710,75871,4,69.236,78.036,78.839,28.436,256.423,484.436,228.023,456.036,684.036,LL5NP,NP_5
3,pro,ste,1,DMCC8033964,pro_ste_run1_DMCC8033964,NP,3,2,ranch,2800,1,943,1,1,158307,167107,168050,75871,5,82.436,91.236,92.179,28.436,256.423,484.436,228.023,456.036,684.036,not5NP,NP_3
3,pro,ste,1,DMCC8033964,pro_ste_run1_DMCC8033964,NN,5,2,deed,4000,1,634,2,2,171494,180294,180928,75871,6,95.623,104.423,105.057,28.436,256.423,484.436,228.023,456.036,684.036,LL5NN,NN_5
3,pro,ste,1,DMCC8033964,pro_ste_run1_DMCC8033964,NN,2,2,access,1600,1,800,2,2,185907,194707,195507,75871,7,110.036,118.836,119.636,28.436,256.423,484.436,228.023,456.036,684.036,not5NN,NN_2
3,pro,ste,1,DMCC8033964,pro_ste_run1_DMCC8033964,NP,4,1,ways,1600,1,845,1,1,197907,206707,207552,75871,8,122.036,130.836,131.681,28.436,256.423,484.436,228.023,456.036,684.036,not5NP,NP_4
3,pro,ste,1,DMCC8033964,pro_ste_run1_DMCC8033964,RN,5,1,keeper,4000,1,820,2,2,209907,218694,219514,75871,9,134.036,142.823,143.643,28.436,256.423,484.436,228.023,456.036,684.036,LL5RN,RN_5
3,pro,ste,1,DMCC8033964,pro_ste_run1_DMCC8033964,NN,5,2,item,2800,1,748,2,2,224294,233107,233855,75871,10,148.423,157.236,157.984,28.436,256.423,484.436,228.023,456.036,684.036,LL5NN,NN_5
3,pro,ste,1,DMCC8033964,pro_ste_run1_DMCC8033964,NN,3,1,hope,2800,1,993,2,2,237507,246307,247300,75871,11,161.636,170.436,171.429,28.436,256.423,484.436,228.023,456.036,684.036,not5NN,NN_3
3,pro,ste,1,DMCC8033964,pro_ste_run1_DMCC8033964,NP,5,3,parent,2800,1,1107,1,1,250707,259494,260601,75871,12,174.836,183.623,184.73,28.436,256.423,484.436,228.023,456.036,684.036,LL5NP,NP_5
3,pro,ste,1,DMCC8033964,pro_ste_run1_DMCC8033964,NP,2,2,dryer,1600,1,745,1,1,263894,272707,273452,75871,13,188.023,196.836,197.581,28.436,256.423,484.436,228.023,456.036,684.036,not5NP,NP_2
3,pro,ste,1,DMCC8033964,pro_ste_run1_DMCC8033964,NP,2,2,suit,4000,1,768,1,1,275907,284707,285475,75871,14,200.036,208.836,209.604,28.436,256.423,484.436,228.023,456.036,684.036,not5NP,NP_2
3,pro,ste,1,DMCC8033964,pro_ste_run1_DMCC8033964,NP,3,2,nail,4000,1,810,1,1,290307,299094,299904,75871,15,214.436,223.223,224.033,28.436,256.423,484.436,228.023,456.036,684.036,not5NP,NP_3
3,pro,ste,1,DMCC8033964,pro_ste_run1_DMCC8033964,NP,5,3,menu,1600,1,1078,1,1,334694,343494,344572,75871,16,258.823,267.623,268.701,28.436,256.423,484.436,228.023,456.036,684.036,LL5NP,NP_5
3,pro,ste,1,DMCC8033964,pro_ste_run1_DMCC8033964,NN,5,2,rage,2800,1,756,2,2,346707,355507,356263,75871,17,270.836,279.636,280.392,28.436,256.423,484.436,228.023,456.036,684.036,LL5NN,NN_5
3,pro,ste,1,DMCC8033964,pro_ste_run1_DMCC8033964,NN,2,2,laser,1600,1,728,2,2,359907,368707,369435,75871,18,284.036,292.836,293.564,28.436,256.423,484.436,228.023,456.036,684.036,not5NN,NN_2
3,pro,ste,1,DMCC8033964,pro_ste_run1_DMCC8033964,NP,2,3,wool,4000,1,881,1,1,371907,380694,381575,75871,19,296.036,304.823,305.704,28.436,256.423,484.436,228.023,456.036,684.036,not5NP,NP_2
3,pro,ste,1,DMCC8033964,pro_ste_run1_DMCC8033964,NP,5,3,color,4000,1,831,1,1,386294,395107,395938,75871,20,310.423,319.236,320.067,28.436,256.423,484.436,228.023,456.036,684.036,LL5NP,NP_5
3,pro,ste,1,DMCC8033964,pro_ste_run1_DMCC8033964,NP,3,2,saint,1600,1,1015,1,1,400707,409507,410522,75871,21,324.836,333.636,334.651,28.436,256.423,484.436,228.023,456.036,684.036,not5NP,NP_3
3,pro,ste,1,DMCC8033964,pro_ste_run1_DMCC8033964,NN,4,1,critic,2800,1,897,2,2,412707,421494,422391,75871,22,336.836,345.623,346.52,28.436,256.423,484.436,228.023,456.036,684.036,not5NN,NN_4
3,pro,ste,1,DMCC8033964,pro_ste_run1_DMCC8033964,NN,5,2,roses,1600,1,713,2,2,425894,434707,435420,75871,23,350.023,358.836,359.549,28.436,256.423,484.436,228.023,456.036,684.036,LL5NN,NN_5
3,pro,ste,1,DMCC8033964,pro_ste_run1_DMCC8033964,NN,3,1,rumor,4000,1,847,2,2,437907,446707,447554,75871,24,362.036,370.836,371.683,28.436,256.423,484.436,228.023,456.036,684.036,not5NN,NN_3
3,pro,ste,1,DMCC8033964,pro_ste_run1_DMCC8033964,NP,3,2,heel,1600,1,874,1,1,452307,461094,461968,75871,25,376.436,385.223,386.097,28.436,256.423,484.436,228.023,456.036,684.036,not5NP,NP_3
3,pro,ste,1,DMCC8033964,pro_ste_run1_DMCC8033964,RN,5,1,shell,2800,1,1055,2,2,464294,473107,474162,75871,26,388.423,397.236,398.291,28.436,256.423,484.436,228.023,456.036,684.036,LL5RN,RN_5
3,pro,ste,1,DMCC8033964,pro_ste_run1_DMCC8033964,NP,5,3,review,2800,1,661,1,1,477507,486307,486968,75871,27,401.636,410.436,411.097,28.436,256.423,484.436,228.023,456.036,684.036,LL5NP,NP_5
3,pro,ste,1,DMCC8033964,pro_ste_run1_DMCC8033964,NN,2,2,rash,4000,1,631,2,2,490707,499494,500125,75871,28,414.836,423.623,424.254,28.436,256.423,484.436,228.023,456.036,684.036,not5NN,NN_2
3,pro,ste,1,DMCC8033964,pro_ste_run1_DMCC8033964,NP,2,3,chip,2800,1,658,1,1,505094,513907,514565,75871,29,429.223,438.036,438.694,28.436,256.423,484.436,228.023,456.036,684.036,not5NP,NP_2
3,pro,ste,1,DMCC8033964,pro_ste_run1_DMCC8033964,NP,2,3,parade,4000,1,679,1,1,518307,527107,527786,75871,30,442.436,451.236,451.915,28.436,256.423,484.436,228.023,456.036,684.036,not5NP,NP_2
3,pro,ste,1,DMCC8033964,pro_ste_run1_DMCC8033964,NP,4,1,verse,4000,1,817,1,1,562707,571507,572324,75871,31,486.836,495.636,496.453,28.436,256.423,484.436,228.023,456.036,684.036,not5NP,NP_4
3,pro,ste,1,DMCC8033964,pro_ste_run1_DMCC8033964,NN,3,2,torch,4000,1,876,2,2,577094,585894,586770,75871,32,501.223,510.023,510.899,28.436,256.423,484.436,228.023,456.036,684.036,not5NN,NN_3
3,pro,ste,1,DMCC8033964,pro_ste_run1_DMCC8033964,NN,5,2,deal,4000,1,833,2,2,591507,600307,601140,75871,33,515.636,524.436,525.269,28.436,256.423,484.436,228.023,456.036,684.036,LL5NN,NN_5
3,pro,ste,1,DMCC8033964,pro_ste_run1_DMCC8033964,NP,5,3,clay,2800,0,1842,2,1,605907,614707,616549,75871,34,530.036,538.836,540.678,28.436,256.423,484.436,228.023,456.036,684.036,LL5NP,NP_5
3,pro,ste,1,DMCC8033964,pro_ste_run1_DMCC8033964,NP,5,3,forest,1600,1,705,1,1,619094,627894,628599,75871,35,543.223,552.023,552.728,28.436,256.423,484.436,228.023,456.036,684.036,LL5NP,NP_5
3,pro,ste,1,DMCC8033964,pro_ste_run1_DMCC8033964,NP,3,1,charge,4000,1,723,1,1,631107,639907,640630,75871,36,555.236,564.036,564.759,28.436,256.423,484.436,228.023,456.036,684.036,not5NP,NP_3
3,pro,ste,1,DMCC8033964,pro_ste_run1_DMCC8033964,NN,2,2,moose,1600,1,677,2,2,645507,654307,654984,75871,37,569.636,578.436,579.113,28.436,256.423,484.436,228.023,456.036,684.036,not5NN,NN_2
3,pro,ste,1,DMCC8033964,pro_ste_run1_DMCC8033964,RN,5,1,chest,1600,1,803,2,2,657494,666294,667097,75871,38,581.623,590.423,591.226,28.436,256.423,484.436,228.023,456.036,684.036,LL5RN,RN_5
3,pro,ste,1,DMCC8033964,pro_ste_run1_DMCC8033964,NP,2,2,paste,4000,1,822,1,1,669494,678307,679129,75871,39,593.623,602.436,603.258,28.436,256.423,484.436,228.023,456.036,684.036,not5NP,NP_2
3,pro,ste,1,DMCC8033964,pro_ste_run1_DMCC8033964,NN,3,2,donor,2800,1,762,2,2,683907,692707,693469,75871,40,608.036,616.836,617.598,28.436,256.423,484.436,228.023,456.036,684.036,not5NN,NN_3
3,pro,ste,1,DMCC8033964,pro_ste_run1_DMCC8033964,NP,5,3,advice,2800,1,797,1,1,697094,705894,706691,75871,41,621.223,630.023,630.82,28.436,256.423,484.436,228.023,456.036,684.036,LL5NP,NP_5
3,pro,ste,1,DMCC8033964,pro_ste_run1_DMCC8033964,NN,2,2,work,2800,1,747,2,2,710294,719107,719854,75871,42,634.423,643.236,643.983,28.436,256.423,484.436,228.023,456.036,684.036,not5NN,NN_2
3,pro,ste,1,DMCC8033964,pro_ste_run1_DMCC8033964,RN,2,1,bags,2800,1,684,2,2,723507,732307,732991,75871,43,647.636,656.436,657.12,28.436,256.423,484.436,228.023,456.036,684.036,not5RN,RN_2
3,pro,ste,1,DMCC8033964,pro_ste_run1_DMCC8033964,NN,5,2,group,1600,1,850,2,2,736707,745494,746344,75871,44,660.836,669.623,670.473,28.436,256.423,484.436,228.023,456.036,684.036,LL5NN,NN_5
3,pro,ste,1,DMCC8033964,pro_ste_run1_DMCC8033964,NP,2,2,guys,1600,1,697,1,1,748694,757507,758204,75871,45,672.823,681.636,682.333,28.436,256.423,484.436,228.023,456.036,684.036,not5NP,NP_2
3,pro,ste,2,DMCC8033964,pro_ste_run2_DMCC8033964,NN,4,1,campus,4000,1,759,2,2,73673,82473,83232,42847,1,30.826,39.626,40.385,28.426,256.412,484.426,228.039,456.026,684.039,not5NN,NN_4
3,pro,ste,2,DMCC8033964,pro_ste_run2_DMCC8033964,NP,5,3,snap,1600,1,674,1,1,88073,96859,97533,42847,2,45.226,54.012,54.686,28.426,256.412,484.426,228.039,456.026,684.039,LL5NP,NP_5
3,pro,ste,2,DMCC8033964,pro_ste_run2_DMCC8033964,NP,4,1,belief,2800,1,829,1,1,100059,108873,109702,42847,3,57.212,66.026,66.855,28.426,256.412,484.426,228.039,456.026,684.039,not5NP,NP_4
3,pro,ste,2,DMCC8033964,pro_ste_run2_DMCC8033964,NP,3,1,drip,4000,1,759,1,1,113273,122073,122832,42847,4,70.426,79.226,79.985,28.426,256.412,484.426,228.039,456.026,684.039,not5NP,NP_3
3,pro,ste,2,DMCC8033964,pro_ste_run2_DMCC8033964,NP,2,2,bottle,2800,1,649,1,1,127673,136459,137108,42847,5,84.826,93.612,94.261,28.426,256.412,484.426,228.039,456.026,684.039,not5NP,NP_2
3,pro,ste,2,DMCC8033964,pro_ste_run2_DMCC8033964,RN,5,1,level,4000,1,855,2,2,140859,149673,150528,42847,6,98.012,106.826,107.681,28.426,256.412,484.426,228.039,456.026,684.039,LL5RN,RN_5
3,pro,ste,2,DMCC8033964,pro_ste_run2_DMCC8033964,NN,2,2,spice,1600,1,749,2,2,155273,164073,164822,42847,7,112.426,121.226,121.975,28.426,256.412,484.426,228.039,456.026,684.039,not5NN,NN_2
3,pro,ste,2,DMCC8033964,pro_ste_run2_DMCC8033964,NN,2,2,coal,4000,1,701,2,2,167273,176059,176760,42847,8,124.426,133.212,133.913,28.426,256.412,484.426,228.039,456.026,684.039,not5NN,NN_2
3,pro,ste,2,DMCC8033964,pro_ste_run2_DMCC8033964,NN,3,1,film,2800,1,646,2,2,181659,190473,191119,42847,9,138.812,147.626,148.272,28.426,256.412,484.426,228.039,456.026,684.039,not5NN,NN_3
3,pro,ste,2,DMCC8033964,pro_ste_run2_DMCC8033964,RN,3,1,singer,4000,1,795,2,2,194873,203673,204468,42847,10,152.026,160.826,161.621,28.426,256.412,484.426,228.039,456.026,684.039,not5RN,RN_3
3,pro,ste,2,DMCC8033964,pro_ste_run2_DMCC8033964,NN,5,2,herd,1600,1,681,2,2,209273,218059,218740,42847,11,166.426,175.212,175.893,28.426,256.412,484.426,228.039,456.026,684.039,LL5NN,NN_5
3,pro,ste,2,DMCC8033964,pro_ste_run2_DMCC8033964,NP,5,3,flight,1600,1,864,1,1,221259,230073,230937,42847,12,178.412,187.226,188.09,28.426,256.412,484.426,228.039,456.026,684.039,LL5NP,NP_5
3,pro,ste,2,DMCC8033964,pro_ste_run2_DMCC8033964,NP,2,2,quote,2800,1,638,1,1,233273,242073,242711,42847,13,190.426,199.226,199.864,28.426,256.412,484.426,228.039,456.026,684.039,not5NP,NP_2
3,pro,ste,2,DMCC8033964,pro_ste_run2_DMCC8033964,NN,5,2,fury,1600,1,836,2,2,246473,255259,256095,42847,14,203.626,212.412,213.248,28.426,256.412,484.426,228.039,456.026,684.039,LL5NN,NN_5
3,pro,ste,2,DMCC8033964,pro_ste_run2_DMCC8033964,NP,5,3,stroke,2800,1,749,1,1,258459,267273,268022,42847,15,215.612,224.426,225.175,28.426,256.412,484.426,228.039,456.026,684.039,LL5NP,NP_5
3,pro,ste,2,DMCC8033964,pro_ste_run2_DMCC8033964,NP,3,2,gold,2800,1,706,1,1,301659,310473,311179,42847,16,258.812,267.626,268.332,28.426,256.412,484.426,228.039,456.026,684.039,not5NP,NP_3
3,pro,ste,2,DMCC8033964,pro_ste_run2_DMCC8033964,NP,3,2,sailor,4000,1,601,1,1,314873,323673,324274,42847,17,272.026,280.826,281.427,28.426,256.412,484.426,228.039,456.026,684.039,not5NP,NP_3
3,pro,ste,2,DMCC8033964,pro_ste_run2_DMCC8033964,NP,5,3,thing,1600,1,1176,1,1,329273,338059,339235,42847,18,286.426,295.212,296.388,28.426,256.412,484.426,228.039,456.026,684.039,LL5NP,NP_5
3,pro,ste,2,DMCC8033964,pro_ste_run2_DMCC8033964,NN,5,2,kids,2800,1,687,2,2,341259,350073,350760,42847,19,298.412,307.226,307.913,28.426,256.412,484.426,228.039,456.026,684.039,LL5NN,NN_5
3,pro,ste,2,DMCC8033964,pro_ste_run2_DMCC8033964,RN,2,1,onion,1600,1,673,2,2,354473,363273,363946,42847,20,311.626,320.426,321.099,28.426,256.412,484.426,228.039,456.026,684.039,not5RN,RN_2
3,pro,ste,2,DMCC8033964,pro_ste_run2_DMCC8033964,NP,5,3,grill,1600,1,731,1,1,366473,375259,375990,42847,21,323.626,332.412,333.143,28.426,256.412,484.426,228.039,456.026,684.039,LL5NP,NP_5
3,pro,ste,2,DMCC8033964,pro_ste_run2_DMCC8033964,NN,4,1,barber,1600,1,672,2,2,378459,387273,387945,42847,22,335.612,344.426,345.098,28.426,256.412,484.426,228.039,456.026,684.039,not5NN,NN_4
3,pro,ste,2,DMCC8033964,pro_ste_run2_DMCC8033964,NN,2,2,flaw,2800,1,671,2,2,390473,399273,399944,42847,23,347.626,356.426,357.097,28.426,256.412,484.426,228.039,456.026,684.039,not5NN,NN_2
3,pro,ste,2,DMCC8033964,pro_ste_run2_DMCC8033964,NN,3,1,grain,1600,1,620,2,2,403673,412473,413093,42847,24,360.826,369.626,370.246,28.426,256.412,484.426,228.039,456.026,684.039,not5NN,NN_3
3,pro,ste,2,DMCC8033964,pro_ste_run2_DMCC8033964,NP,2,2,nerve,4000,1,639,1,1,415659,424459,425098,42847,25,372.812,381.612,382.251,28.426,256.412,484.426,228.039,456.026,684.039,not5NP,NP_2
3,pro,ste,2,DMCC8033964,pro_ste_run2_DMCC8033964,NP,5,3,class,2800,1,664,1,1,430073,438873,439537,42847,26,387.226,396.026,396.69,28.426,256.412,484.426,228.039,456.026,684.039,LL5NP,NP_5
3,pro,ste,2,DMCC8033964,pro_ste_run2_DMCC8033964,NN,2,2,tally,4000,1,574,2,2,443273,452073,452647,42847,27,400.426,409.226,409.8,28.426,256.412,484.426,228.039,456.026,684.039,not5NN,NN_2
3,pro,ste,2,DMCC8033964,pro_ste_run2_DMCC8033964,NP,2,2,photo,2800,1,551,1,1,457659,466459,467010,42847,28,414.812,423.612,424.163,28.426,256.412,484.426,228.039,456.026,684.039,not5NP,NP_2
3,pro,ste,2,DMCC8033964,pro_ste_run2_DMCC8033964,NN,5,2,zebra,4000,1,702,2,2,470873,479673,480375,42847,29,428.026,436.826,437.528,28.426,256.412,484.426,228.039,456.026,684.039,LL5NN,NN_5
3,pro,ste,2,DMCC8033964,pro_ste_run2_DMCC8033964,RN,5,1,pupil,4000,1,714,2,2,485273,494073,494787,42847,30,442.426,451.226,451.94,28.426,256.412,484.426,228.039,456.026,684.039,LL5RN,RN_5
3,pro,ste,2,DMCC8033964,pro_ste_run2_DMCC8033964,NN,2,1,list,4000,1,826,2,2,529673,538459,539285,42847,31,486.826,495.612,496.438,28.426,256.412,484.426,228.039,456.026,684.039,not5NN,NN_2
3,pro,ste,2,DMCC8033964,pro_ste_run2_DMCC8033964,NP,3,1,tissue,4000,1,846,1,1,544059,552873,553719,42847,32,501.212,510.026,510.872,28.426,256.412,484.426,228.039,456.026,684.039,not5NP,NP_3
3,pro,ste,2,DMCC8033964,pro_ste_run2_DMCC8033964,NP,2,3,point,4000,1,876,1,1,558473,567273,568149,42847,33,515.626,524.426,525.302,28.426,256.412,484.426,228.039,456.026,684.039,not5NP,NP_2
3,pro,ste,2,DMCC8033964,pro_ste_run2_DMCC8033964,NN,5,2,output,4000,1,782,2,2,572873,581659,582441,42847,34,530.026,538.812,539.594,28.426,256.412,484.426,228.039,456.026,684.039,LL5NN,NN_5
3,pro,ste,2,DMCC8033964,pro_ste_run2_DMCC8033964,NP,5,3,finger,2800,1,724,1,1,587259,596073,596797,42847,35,544.412,553.226,553.95,28.426,256.412,484.426,228.039,456.026,684.039,LL5NP,NP_5
3,pro,ste,2,DMCC8033964,pro_ste_run2_DMCC8033964,NP,2,3,grace,2800,1,678,1,1,600473,609273,609951,42847,36,557.626,566.426,567.104,28.426,256.412,484.426,228.039,456.026,684.039,not5NP,NP_2
3,pro,ste,2,DMCC8033964,pro_ste_run2_DMCC8033964,NN,3,2,filter,2800,1,685,2,2,613673,622459,623144,42847,37,570.826,579.612,580.297,28.426,256.412,484.426,228.039,456.026,684.039,not5NN,NN_3
3,pro,ste,2,DMCC8033964,pro_ste_run2_DMCC8033964,NP,5,3,click,2800,1,1000,1,1,626859,635673,636673,42847,38,584.012,592.826,593.826,28.426,256.412,484.426,228.039,456.026,684.039,LL5NP,NP_5
3,pro,ste,2,DMCC8033964,pro_ste_run2_DMCC8033964,NN,3,2,cows,1600,1,759,2,2,640073,648873,649632,42847,39,597.226,606.026,606.785,28.426,256.412,484.426,228.039,456.026,684.039,not5NN,NN_3
3,pro,ste,2,DMCC8033964,pro_ste_run2_DMCC8033964,RN,5,1,need,1600,1,890,2,2,652073,660859,661749,42847,40,609.226,618.012,618.902,28.426,256.412,484.426,228.039,456.026,684.039,LL5RN,RN_5
3,pro,ste,2,DMCC8033964,pro_ste_run2_DMCC8033964,NP,5,3,void,1600,1,971,1,1,664059,672873,673844,42847,41,621.212,630.026,630.997,28.426,256.412,484.426,228.039,456.026,684.039,LL5NP,NP_5
3,pro,ste,2,DMCC8033964,pro_ste_run2_DMCC8033964,NP,2,3,talent,4000,1,671,1,1,676073,684873,685544,42847,42,633.226,642.026,642.697,28.426,256.412,484.426,228.039,456.026,684.039,not5NP,NP_2
3,pro,ste,2,DMCC8033964,pro_ste_run2_DMCC8033964,NP,4,1,clown,1600,1,828,1,1,690473,699259,700087,42847,43,647.626,656.412,657.24,28.426,256.412,484.426,228.039,456.026,684.039,not5NP,NP_4
3,pro,ste,2,DMCC8033964,pro_ste_run2_DMCC8033964,NN,5,2,signal,1600,1,701,2,2,702459,711259,711960,42847,44,659.612,668.412,669.113,28.426,256.412,484.426,228.039,456.026,684.039,LL5NN,NN_5
3,pro,ste,2,DMCC8033964,pro_ste_run2_DMCC8033964,NN,4,1,grip,2800,1,703,2,2,714473,723273,723976,42847,45,671.626,680.426,681.129,28.426,256.412,484.426,228.039,456.026,684.039,not5NN,NN_4
3,rea,ste,1,DMCC8033964,rea_ste_run1_DMCC8033964,NP,8,2,brow,1600,1,858,1,1,127366,136152,137010,96514,1,30.852,39.638,40.496,28.452,256.452,484.438,228.065,456.065,684.052,not5NP,NP_8
3,rea,ste,1,DMCC8033964,rea_ste_run1_DMCC8033964,RN,5,2,jets,4000,1,1040,2,2,139352,148166,149206,96514,2,42.838,51.652,52.692,28.452,256.452,484.438,228.065,456.065,684.052,LL5RN,RN_5
3,rea,ste,1,DMCC8033964,rea_ste_run1_DMCC8033964,NP,5,3,touch,1600,1,1147,1,1,153766,162566,163713,96514,3,57.252,66.052,67.199,28.452,256.452,484.438,228.065,456.065,684.052,LL5NP,NP_5
3,rea,ste,1,DMCC8033964,rea_ste_run1_DMCC8033964,NP,5,3,pound,2800,1,683,1,1,165766,174552,175235,96514,4,69.252,78.038,78.721,28.452,256.452,484.438,228.065,456.065,684.052,LL5NP,NP_5
3,rea,ste,1,DMCC8033964,rea_ste_run1_DMCC8033964,RN,7,1,rivals,2800,1,817,2,2,178952,187766,188583,96514,5,82.438,91.252,92.069,28.452,256.452,484.438,228.065,456.065,684.052,not5RN,RN_7
3,rea,ste,1,DMCC8033964,rea_ste_run1_DMCC8033964,NP,6,1,name,1600,0,1363,2,1,192166,200966,202329,96514,6,95.652,104.452,105.815,28.452,256.452,484.438,228.065,456.065,684.052,not5NP,NP_6
3,rea,ste,1,DMCC8033964,rea_ste_run1_DMCC8033964,NP,7,2,world,1600,1,994,1,1,204166,212952,213946,96514,7,107.652,116.438,117.432,28.452,256.452,484.438,228.065,456.065,684.052,not5NP,NP_7
3,rea,ste,1,DMCC8033964,rea_ste_run1_DMCC8033964,RN,8,2,marker,4000,0,1027,1,2,216152,224966,225993,96514,8,119.638,128.452,129.479,28.452,256.452,484.438,228.065,456.065,684.052,not5RN,RN_8
3,rea,ste,1,DMCC8033964,rea_ste_run1_DMCC8033964,NP,5,3,wife,4000,1,964,1,1,230566,239366,240330,96514,9,134.052,142.852,143.816,28.452,256.452,484.438,228.065,456.065,684.052,LL5NP,NP_5
3,rea,ste,1,DMCC8033964,rea_ste_run1_DMCC8033964,RN,5,2,paper,4000,1,995,2,2,244966,253752,254747,96514,10,148.452,157.238,158.233,28.452,256.452,484.438,228.065,456.065,684.052,LL5RN,RN_5
3,rea,ste,1,DMCC8033964,rea_ste_run1_DMCC8033964,NN,5,1,chin,1600,1,780,2,2,259352,268166,268946,96514,11,162.838,171.652,172.432,28.452,256.452,484.438,228.065,456.065,684.052,LL5NN,NN_5
3,rea,ste,1,DMCC8033964,rea_ste_run1_DMCC8033964,NP,7,2,grill,2800,1,1643,1,1,271366,280166,281809,96514,12,174.852,183.652,185.295,28.452,256.452,484.438,228.065,456.065,684.052,not5NP,NP_7
3,rea,ste,1,DMCC8033964,rea_ste_run1_DMCC8033964,RN,8,2,rhyme,2800,1,798,2,2,284566,293352,294150,96514,13,188.052,196.838,197.636,28.452,256.452,484.438,228.065,456.065,684.052,not5RN,RN_8
3,rea,ste,1,DMCC8033964,rea_ste_run1_DMCC8033964,NP,8,2,goods,2800,0,1097,2,1,297752,306566,307663,96514,14,201.238,210.052,211.149,28.452,256.452,484.438,228.065,456.065,684.052,not5NP,NP_8
3,rea,ste,1,DMCC8033964,rea_ste_run1_DMCC8033964,RN,6,1,reign,4000,1,1008,2,2,310966,319766,320774,96514,15,214.452,223.252,224.26,28.452,256.452,484.438,228.065,456.065,684.052,not5RN,RN_6
3,rea,ste,1,DMCC8033964,rea_ste_run1_DMCC8033964,NP,5,3,harbor,4000,1,1050,1,1,355366,364166,365216,96514,16,258.852,267.652,268.702,28.452,256.452,484.438,228.065,456.065,684.052,LL5NP,NP_5
3,rea,ste,1,DMCC8033964,rea_ste_run1_DMCC8033964,RN,7,1,boat,1600,1,774,2,2,369766,378552,379326,96514,17,273.252,282.038,282.812,28.452,256.452,484.438,228.065,456.065,684.052,not5RN,RN_7
3,rea,ste,1,DMCC8033964,rea_ste_run1_DMCC8033964,RN,8,2,hour,1600,0,1196,1,2,381752,390566,391762,96514,18,285.238,294.052,295.248,28.452,256.452,484.438,228.065,456.065,684.052,not5RN,RN_8
3,rea,ste,1,DMCC8033964,rea_ste_run1_DMCC8033964,NP,8,3,tongue,4000,0,734,2,1,393766,402566,403300,96514,19,297.252,306.052,306.786,28.452,256.452,484.438,228.065,456.065,684.052,not5NP,NP_8
3,rea,ste,1,DMCC8033964,rea_ste_run1_DMCC8033964,RN,6,1,beam,4000,1,782,2,2,408166,416952,417734,96514,20,311.652,320.438,321.22,28.452,256.452,484.438,228.065,456.065,684.052,not5RN,RN_6
3,rea,ste,1,DMCC8033964,rea_ste_run1_DMCC8033964,NN,5,1,ruler,1600,1,949,2,2,422552,431366,432315,96514,21,326.038,334.852,335.801,28.452,256.452,484.438,228.065,456.065,684.052,LL5NN,NN_5
3,rea,ste,1,DMCC8033964,rea_ste_run1_DMCC8033964,NP,5,3,dryer,4000,1,1220,1,1,434566,443366,444586,96514,22,338.052,346.852,348.072,28.452,256.452,484.438,228.065,456.065,684.052,LL5NP,NP_5
3,rea,ste,1,DMCC8033964,rea_ste_run1_DMCC8033964,RN,8,2,jazz,2800,1,1679,2,2,448966,457752,459431,96514,23,352.452,361.238,362.917,28.452,256.452,484.438,228.065,456.065,684.052,not5RN,RN_8
3,rea,ste,1,DMCC8033964,rea_ste_run1_DMCC8033964,RN,5,2,blaze,1600,1,732,2,2,462152,470966,471698,96514,24,365.638,374.452,375.184,28.452,256.452,484.438,228.065,456.065,684.052,LL5RN,RN_5
3,rea,ste,1,DMCC8033964,rea_ste_run1_DMCC8033964,NP,8,3,visit,2800,0,925,2,1,474166,482966,483891,96514,25,377.652,386.452,387.377,28.452,256.452,484.438,228.065,456.065,684.052,not5NP,NP_8
3,rea,ste,1,DMCC8033964,rea_ste_run1_DMCC8033964,RN,5,2,ideals,1600,1,1255,2,2,487366,496152,497407,96514,26,390.852,399.638,400.893,28.452,256.452,484.438,228.065,456.065,684.052,LL5RN,RN_5
3,rea,ste,1,DMCC8033964,rea_ste_run1_DMCC8033964,NP,5,3,plate,2800,1,705,1,1,499352,508166,508871,96514,27,402.838,411.652,412.357,28.452,256.452,484.438,228.065,456.065,684.052,LL5NP,NP_5
3,rea,ste,1,DMCC8033964,rea_ste_run1_DMCC8033964,NP,7,2,spark,2800,0,1411,2,1,512566,521366,522777,96514,28,416.052,424.852,426.263,28.452,256.452,484.438,228.065,456.065,684.052,not5NP,NP_7
3,rea,ste,1,DMCC8033964,rea_ste_run1_DMCC8033964,NP,8,3,males,2800,0,1415,2,1,525766,534552,535967,96514,29,429.252,438.038,439.453,28.452,256.452,484.438,228.065,456.065,684.052,not5NP,NP_8
3,rea,ste,1,DMCC8033964,rea_ste_run1_DMCC8033964,NP,7,2,setup,4000,1,669,1,1,538952,547752,548421,96514,30,442.438,451.238,451.907,28.452,256.452,484.438,228.065,456.065,684.052,not5NP,NP_7
3,rea,ste,1,DMCC8033964,rea_ste_run1_DMCC8033964,NP,5,3,answer,1600,1,774,1,1,583352,592166,592940,96514,31,486.838,495.652,496.426,28.452,256.452,484.438,228.065,456.065,684.052,LL5NP,NP_5
3,rea,ste,1,DMCC8033964,rea_ste_run1_DMCC8033964,RN,5,2,hawk,4000,1,966,2,2,595366,604166,605132,96514,32,498.852,507.652,508.618,28.452,256.452,484.438,228.065,456.065,684.052,LL5RN,RN_5
3,rea,ste,1,DMCC8033964,rea_ste_run1_DMCC8033964,NN,8,1,train,1600,1,832,2,2,609766,618552,619384,96514,33,513.252,522.038,522.87,28.452,256.452,484.438,228.065,456.065,684.052,not5NN,NN_8
3,rea,ste,1,DMCC8033964,rea_ste_run1_DMCC8033964,RN,8,2,poppy,2800,1,784,2,2,621752,630566,631350,96514,34,525.238,534.052,534.836,28.452,256.452,484.438,228.065,456.065,684.052,not5RN,RN_8
3,rea,ste,1,DMCC8033964,rea_ste_run1_DMCC8033964,RN,7,2,wave,4000,1,1015,2,2,634966,643766,644781,96514,35,538.452,547.252,548.267,28.452,256.452,484.438,228.065,456.065,684.052,not5RN,RN_7
3,rea,ste,1,DMCC8033964,rea_ste_run1_DMCC8033964,RN,8,2,days,2800,1,863,2,2,649366,658152,659015,96514,36,552.852,561.638,562.501,28.452,256.452,484.438,228.065,456.065,684.052,not5RN,RN_8
3,rea,ste,1,DMCC8033964,rea_ste_run1_DMCC8033964,RN,7,2,need,1600,0,1098,1,2,662552,671366,672464,96514,37,566.038,574.852,575.95,28.452,256.452,484.438,228.065,456.065,684.052,not5RN,RN_7
3,rea,ste,1,DMCC8033964,rea_ste_run1_DMCC8033964,NP,5,3,hose,4000,1,972,1,1,674566,683366,684338,96514,38,578.052,586.852,587.824,28.452,256.452,484.438,228.065,456.065,684.052,LL5NP,NP_5
3,rea,ste,1,DMCC8033964,rea_ste_run1_DMCC8033964,RN,5,2,drip,2800,1,1235,2,2,688966,697752,698987,96514,39,592.452,601.238,602.473,28.452,256.452,484.438,228.065,456.065,684.052,LL5RN,RN_5
3,rea,ste,1,DMCC8033964,rea_ste_run1_DMCC8033964,NN,5,1,finger,1600,1,822,2,2,702152,710966,711788,96514,40,605.638,614.452,615.274,28.452,256.452,484.438,228.065,456.065,684.052,LL5NN,NN_5
3,rea,ste,1,DMCC8033964,rea_ste_run1_DMCC8033964,NP,8,2,charge,2800,1,831,1,1,714166,722966,723797,96514,41,617.652,626.452,627.283,28.452,256.452,484.438,228.065,456.065,684.052,not5NP,NP_8
3,rea,ste,1,DMCC8033964,rea_ste_run1_DMCC8033964,NP,7,1,drum,1600,1,899,1,1,727366,736166,737065,96514,42,630.852,639.652,640.551,28.452,256.452,484.438,228.065,456.065,684.052,not5NP,NP_7
3,rea,ste,1,DMCC8033964,rea_ste_run1_DMCC8033964,NP,5,3,spell,4000,1,845,1,1,739352,748152,748997,96514,43,642.838,651.638,652.483,28.452,256.452,484.438,228.065,456.065,684.052,LL5NP,NP_5
3,rea,ste,1,DMCC8033964,rea_ste_run1_DMCC8033964,NP,6,1,people,4000,0,1639,2,1,753766,762566,764205,96514,44,657.252,666.052,667.691,28.452,256.452,484.438,228.065,456.065,684.052,not5NP,NP_6
3,rea,ste,1,DMCC8033964,rea_ste_run1_DMCC8033964,NP,8,2,rattle,2800,0,1066,2,1,768166,776966,778032,96514,45,671.652,680.452,681.518,28.452,256.452,484.438,228.065,456.065,684.052,not5NP,NP_8
3,rea,ste,2,DMCC8033964,rea_ste_run2_DMCC8033964,NN,5,1,food,1600,1,829,2,2,65021,73821,74650,34198,1,30.823,39.623,40.452,28.423,256.423,484.423,228.023,456.037,684.037,LL5NN,NN_5
3,rea,ste,2,DMCC8033964,rea_ste_run2_DMCC8033964,NP,8,2,rider,2800,1,696,1,1,77021,85821,86517,34198,2,42.823,51.623,52.319,28.423,256.423,484.423,228.023,456.037,684.037,not5NP,NP_8
3,rea,ste,2,DMCC8033964,rea_ste_run2_DMCC8033964,RN,8,2,slug,1600,0,938,1,2,90208,99008,99946,34198,3,56.01,64.81,65.748,28.423,256.423,484.423,228.023,456.037,684.037,not5RN,RN_8
3,rea,ste,2,DMCC8033964,rea_ste_run2_DMCC8033964,RN,8,2,witch,2800,1,1015,2,2,102221,111021,112036,34198,4,68.023,76.823,77.838,28.423,256.423,484.423,228.023,456.037,684.037,not5RN,RN_8
3,rea,ste,2,DMCC8033964,rea_ste_run2_DMCC8033964,RN,5,2,stain,4000,1,1010,2,2,115421,124221,125231,34198,5,81.223,90.023,91.033,28.423,256.423,484.423,228.023,456.037,684.037,LL5RN,RN_5
3,rea,ste,2,DMCC8033964,rea_ste_run2_DMCC8033964,NN,7,1,herd,1600,1,828,2,2,129808,138608,139436,34198,6,95.61,104.41,105.238,28.423,256.423,484.423,228.023,456.037,684.037,not5NN,NN_7
3,rea,ste,2,DMCC8033964,rea_ste_run2_DMCC8033964,NP,7,1,flag,1600,1,668,1,1,141808,150621,151289,34198,7,107.61,116.423,117.091,28.423,256.423,484.423,228.023,456.037,684.037,not5NP,NP_7
3,rea,ste,2,DMCC8033964,rea_ste_run2_DMCC8033964,RN,6,1,maid,4000,1,826,2,2,153821,162621,163447,34198,8,119.623,128.423,129.249,28.423,256.423,484.423,228.023,456.037,684.037,not5RN,RN_6
3,rea,ste,2,DMCC8033964,rea_ste_run2_DMCC8033964,NP,6,1,wall,1600,1,973,1,1,168221,177008,177981,34198,9,134.023,142.81,143.783,28.423,256.423,484.423,228.023,456.037,684.037,not5NP,NP_6
3,rea,ste,2,DMCC8033964,rea_ste_run2_DMCC8033964,NP,5,3,zipper,2800,1,812,1,1,180208,189021,189833,34198,10,146.01,154.823,155.635,28.423,256.423,484.423,228.023,456.037,684.037,LL5NP,NP_5
3,rea,ste,2,DMCC8033964,rea_ste_run2_DMCC8033964,RN,5,2,pair,4000,1,948,2,2,193421,202221,203169,34198,11,159.223,168.023,168.971,28.423,256.423,484.423,228.023,456.037,684.037,LL5RN,RN_5
3,rea,ste,2,DMCC8033964,rea_ste_run2_DMCC8033964,NP,8,2,tree,4000,1,1088,1,1,207821,216608,217696,34198,12,173.623,182.41,183.498,28.423,256.423,484.423,228.023,456.037,684.037,not5NP,NP_8
3,rea,ste,2,DMCC8033964,rea_ste_run2_DMCC8033964,NP,5,3,photo,4000,1,1039,1,1,222208,231021,232060,34198,13,188.01,196.823,197.862,28.423,256.423,484.423,228.023,456.037,684.037,LL5NP,NP_5
3,rea,ste,2,DMCC8033964,rea_ste_run2_DMCC8033964,NP,5,3,girl,2800,1,985,1,1,236621,245421,246406,34198,14,202.423,211.223,212.208,28.423,256.423,484.423,228.023,456.037,684.037,LL5NP,NP_5
3,rea,ste,2,DMCC8033964,rea_ste_run2_DMCC8033964,RN,7,1,quart,2800,1,1056,2,2,249821,258608,259664,34198,15,215.623,224.41,225.466,28.423,256.423,484.423,228.023,456.037,684.037,not5RN,RN_7
3,rea,ste,2,DMCC8033964,rea_ste_run2_DMCC8033964,NN,8,1,rest,1600,1,800,2,2,293008,301808,302608,34198,16,258.81,267.61,268.41,28.423,256.423,484.423,228.023,456.037,684.037,not5NN,NN_8
3,rea,ste,2,DMCC8033964,rea_ste_run2_DMCC8033964,NP,7,2,singer,4000,1,748,1,1,305021,313821,314569,34198,17,270.823,279.623,280.371,28.423,256.423,484.423,228.023,456.037,684.037,not5NP,NP_7
3,rea,ste,2,DMCC8033964,rea_ste_run2_DMCC8033964,RN,8,2,prince,1600,1,1264,2,2,319421,328221,329485,34198,18,285.223,294.023,295.287,28.423,256.423,484.423,228.023,456.037,684.037,not5RN,RN_8
3,rea,ste,2,DMCC8033964,rea_ste_run2_DMCC8033964,NP,5,3,pals,2800,0,1486,2,1,331408,340208,341694,34198,19,297.21,306.01,307.496,28.423,256.423,484.423,228.023,456.037,684.037,LL5NP,NP_5
3,rea,ste,2,DMCC8033964,rea_ste_run2_DMCC8033964,NP,5,3,cotton,2800,0,931,2,1,344608,353421,354352,34198,20,310.41,319.223,320.154,28.423,256.423,484.423,228.023,456.037,684.037,LL5NP,NP_5
3,rea,ste,2,DMCC8033964,rea_ste_run2_DMCC8033964,NP,5,3,chest,2800,0,927,2,1,357821,366621,367548,34198,21,323.623,332.423,333.35,28.423,256.423,484.423,228.023,456.037,684.037,LL5NP,NP_5
3,rea,ste,2,DMCC8033964,rea_ste_run2_DMCC8033964,NP,8,2,dawn,4000,1,911,1,1,371021,379808,380719,34198,22,336.823,345.61,346.521,28.423,256.423,484.423,228.023,456.037,684.037,not5NP,NP_8
3,rea,ste,2,DMCC8033964,rea_ste_run2_DMCC8033964,RN,5,2,praise,4000,1,946,2,2,385408,394221,395167,34198,23,351.21,360.023,360.969,28.423,256.423,484.423,228.023,456.037,684.037,LL5RN,RN_5
3,rea,ste,2,DMCC8033964,rea_ste_run2_DMCC8033964,RN,5,2,walker,1600,1,958,2,2,399821,408621,409579,34198,24,365.623,374.423,375.381,28.423,256.423,484.423,228.023,456.037,684.037,LL5RN,RN_5
3,rea,ste,2,DMCC8033964,rea_ste_run2_DMCC8033964,NN,5,1,grass,4000,1,751,2,2,411821,420608,421359,34198,25,377.623,386.41,387.161,28.423,256.423,484.423,228.023,456.037,684.037,LL5NN,NN_5
3,rea,ste,2,DMCC8033964,rea_ste_run2_DMCC8033964,NP,8,2,charm,1600,0,1031,2,1,426208,435021,436052,34198,26,392.01,400.823,401.854,28.423,256.423,484.423,228.023,456.037,684.037,not5NP,NP_8
3,rea,ste,2,DMCC8033964,rea_ste_run2_DMCC8033964,RN,8,2,barber,1600,0,1894,1,2,438221,447021,448915,34198,27,404.023,412.823,414.717,28.423,256.423,484.423,228.023,456.037,684.037,not5RN,RN_8
3,rea,ste,2,DMCC8033964,rea_ste_run2_DMCC8033964,RN,6,1,motor,4000,1,689,2,2,450221,459008,459697,34198,28,416.023,424.81,425.499,28.423,256.423,484.423,228.023,456.037,684.037,not5RN,RN_6
3,rea,ste,2,DMCC8033964,rea_ste_run2_DMCC8033964,RN,7,1,east,2800,1,841,2,2,464608,473421,474262,34198,29,430.41,439.223,440.064,28.423,256.423,484.423,228.023,456.037,684.037,not5RN,RN_7
3,rea,ste,2,DMCC8033964,rea_ste_run2_DMCC8033964,NP,7,2,oats,2800,1,771,1,1,477821,486621,487392,34198,30,443.623,452.423,453.194,28.423,256.423,484.423,228.023,456.037,684.037,not5NP,NP_7
3,rea,ste,2,DMCC8033964,rea_ste_run2_DMCC8033964,NP,8,3,slip,2800,0,1178,2,1,521021,529821,530999,34198,31,486.823,495.623,496.801,28.423,256.423,484.423,228.023,456.037,684.037,not5NP,NP_8
3,rea,ste,2,DMCC8033964,rea_ste_run2_DMCC8033964,RN,7,2,note,2800,1,1004,2,2,534208,543008,544012,34198,32,500.01,508.81,509.814,28.423,256.423,484.423,228.023,456.037,684.037,not5RN,RN_7
3,rea,ste,2,DMCC8033964,rea_ste_run2_DMCC8033964,RN,5,2,tile,4000,1,1718,2,2,547408,556221,557939,34198,33,513.21,522.023,523.741,28.423,256.423,484.423,228.023,456.037,684.037,LL5RN,RN_5
3,rea,ste,2,DMCC8033964,rea_ste_run2_DMCC8033964,NP,5,3,winner,1600,0,1258,2,1,561821,570621,571879,34198,34,527.623,536.423,537.681,28.423,256.423,484.423,228.023,456.037,684.037,LL5NP,NP_5
