wave,session,task,run,subj,name,trial.type,load,numtrials,probe,iti,acc,rt,resp,cresp,time.cue.onset.abs,time.target.onset.abs,time.rt.abs,time.scan.start,trial.num,time.cue.onset,time.target.onset,time.rt,time.block1.on,time.block2.on,time.block3.on,time.block1.off,time.block2.off,time.block3.off,trialtype,trialtype_alt
1,bas,ste,1,130518,bas_ste_run1_130518,NP,5,3,syrup,1600,1,1556,1,1,137437,146236,147792,106615,1,30.822,39.621,41.177,28.422,256.419,484.416,228.024,456.02,684.034,LL5NP,NP_5
1,bas,ste,1,130518,bas_ste_run1_130518,NN,8,2,scale,4000,1,1059,2,2,149435,158234,159293,106615,2,42.82,51.619,52.678,28.422,256.419,484.416,228.024,456.02,684.034,not5NN,NN_8
1,bas,ste,1,130518,bas_ste_run1_130518,NN,8,2,doll,4000,1,716,2,2,163833,172631,173347,106615,3,57.218,66.016,66.732,28.422,256.419,484.416,228.024,456.02,684.034,not5NN,NN_8
1,bas,ste,1,130518,bas_ste_run1_130518,NP,5,3,threat,4000,1,631,1,1,178230,187029,187660,106615,4,71.615,80.414,81.045,28.422,256.419,484.416,228.024,456.02,684.034,LL5NP,NP_5
1,bas,ste,1,130518,bas_ste_run1_130518,NN,6,1,parrot,1600,1,1163,2,2,192628,201443,202606,106615,5,86.013,94.828,95.991,28.422,256.419,484.416,228.024,456.02,684.034,not5NN,NN_6
1,bas,ste,1,130518,bas_ste_run1_130518,NP,8,2,chance,2800,1,982,1,1,204643,213441,214423,106615,6,98.028,106.826,107.808,28.422,256.419,484.416,228.024,456.02,684.034,not5NP,NP_8
1,bas,ste,1,130518,bas_ste_run1_130518,NN,5,2,blur,1600,0,1401,1,2,217841,226639,228040,106615,7,111.226,120.024,121.425,28.422,256.419,484.416,228.024,456.02,684.034,LL5NN,NN_5
1,bas,ste,1,130518,bas_ste_run1_130518,NP,7,2,rash,2800,1,1174,1,1,229839,238637,239811,106615,8,123.224,132.022,133.196,28.422,256.419,484.416,228.024,456.02,684.034,not5NP,NP_7
1,bas,ste,1,130518,bas_ste_run1_130518,NN,5,2,tube,1600,1,1140,2,2,243037,251835,252975,106615,9,136.422,145.22,146.36,28.422,256.419,484.416,228.024,456.02,684.034,LL5NN,NN_5
1,bas,ste,1,130518,bas_ste_run1_130518,NP,5,3,share,2800,0,1082,2,1,255035,263833,264915,106615,10,148.42,157.218,158.3,28.422,256.419,484.416,228.024,456.02,684.034,LL5NP,NP_5
1,bas,ste,1,130518,bas_ste_run1_130518,NP,7,2,wealth,2800,1,967,1,1,268233,277031,277998,106615,11,161.618,170.416,171.383,28.422,256.419,484.416,228.024,456.02,684.034,not5NP,NP_7
1,bas,ste,1,130518,bas_ste_run1_130518,NP,8,2,bush,1600,1,1098,1,1,281431,290229,291327,106615,12,174.816,183.614,184.712,28.422,256.419,484.416,228.024,456.02,684.034,not5NP,NP_8
1,bas,ste,1,130518,bas_ste_run1_130518,NN,7,1,straw,2800,1,1021,2,2,293429,302227,303248,106615,13,186.814,195.612,196.633,28.422,256.419,484.416,228.024,456.02,684.034,not5NN,NN_7
1,bas,ste,1,130518,bas_ste_run1_130518,NP,6,1,frost,4000,1,1249,1,1,306643,315442,316691,106615,14,200.028,208.827,210.076,28.422,256.419,484.416,228.024,456.02,684.034,not5NP,NP_6
1,bas,ste,1,130518,bas_ste_run1_130518,RN,5,1,quart,4000,0,1571,1,2,321041,329839,331410,106615,15,214.426,223.224,224.795,28.422,256.419,484.416,228.024,456.02,684.034,LL5RN,RN_5
1,bas,ste,1,130518,bas_ste_run1_130518,NN,6,1,taxi,4000,0,1348,1,2,365434,374232,375580,106615,16,258.819,267.617,268.965,28.422,256.419,484.416,228.024,456.02,684.034,not5NN,NN_6
1,bas,ste,1,130518,bas_ste_run1_130518,NN,8,2,liar,4000,1,1170,2,2,379831,388630,389800,106615,17,273.216,282.015,283.185,28.422,256.419,484.416,228.024,456.02,684.034,not5NN,NN_8
1,bas,ste,1,130518,bas_ste_run1_130518,NP,7,2,need,2800,0,1153,2,1,394229,403028,404181,106615,18,287.614,296.413,297.566,28.422,256.419,484.416,228.024,456.02,684.034,not5NP,NP_7
1,bas,ste,1,130518,bas_ste_run1_130518,NP,7,2,bean,2800,1,1070,1,1,407427,416242,417312,106615,19,300.812,309.627,310.697,28.422,256.419,484.416,228.024,456.02,684.034,not5NP,NP_7
1,bas,ste,1,130518,bas_ste_run1_130518,NP,8,3,bees,4000,1,908,1,1,420642,429440,430348,106615,20,314.027,322.825,323.733,28.422,256.419,484.416,228.024,456.02,684.034,not5NP,NP_8
1,bas,ste,1,130518,bas_ste_run1_130518,NP,5,3,visit,4000,1,1027,1,1,435039,443838,444865,106615,21,328.424,337.223,338.25,28.422,256.419,484.416,228.024,456.02,684.034,LL5NP,NP_5
1,bas,ste,1,130518,bas_ste_run1_130518,NN,7,1,logic,2800,1,1159,2,2,449437,458236,459395,106615,22,342.822,351.621,352.78,28.422,256.419,484.416,228.024,456.02,684.034,not5NN,NN_7
1,bas,ste,1,130518,bas_ste_run1_130518,NP,5,3,people,1600,1,1000,1,1,462635,471433,472433,106615,23,356.02,364.818,365.818,28.422,256.419,484.416,228.024,456.02,684.034,LL5NP,NP_5
1,bas,ste,1,130518,bas_ste_run1_130518,NN,8,2,heater,1600,0,0,,2,474633,483431,0,106615,24,368.018,376.816,-106.615,28.422,256.419,484.416,228.024,456.02,684.034,not5NN,NN_8
1,bas,ste,1,130518,bas_ste_run1_130518,RN,5,1,noise,2800,0,918,1,2,486631,495430,496348,106615,25,380.016,388.815,389.733,28.422,256.419,484.416,228.024,456.02,684.034,LL5RN,RN_5
1,bas,ste,1,130518,bas_ste_run1_130518,NN,5,2,pole,1600,1,773,2,2,499829,508627,509400,106615,26,393.214,402.012,402.785,28.422,256.419,484.416,228.024,456.02,684.034,LL5NN,NN_5
1,bas,ste,1,130518,bas_ste_run1_130518,NP,8,3,city,1600,1,1040,1,1,511827,520642,521682,106615,27,405.212,414.027,415.067,28.422,256.419,484.416,228.024,456.02,684.034,not5NP,NP_8
1,bas,ste,1,130518,bas_ste_run1_130518,NP,8,3,carpet,2800,1,1351,1,1,523842,532640,533991,106615,28,417.227,426.025,427.376,28.422,256.419,484.416,228.024,456.02,684.034,not5NP,NP_8
1,bas,ste,1,130518,bas_ste_run1_130518,NP,5,3,tags,4000,1,791,1,1,537040,545838,546629,106615,29,430.425,439.223,440.014,28.422,256.419,484.416,228.024,456.02,684.034,LL5NP,NP_5
1,bas,ste,1,130518,bas_ste_run1_130518,NN,5,2,greed,1600,1,921,2,2,551437,560236,561157,106615,30,444.822,453.621,454.542,28.422,256.419,484.416,228.024,456.02,684.034,LL5NN,NN_5
1,bas,ste,1,130518,bas_ste_run1_130518,NN,5,2,pans,2800,1,1387,2,2,593431,602229,603616,106615,31,486.816,495.614,497.001,28.422,256.419,484.416,228.024,456.02,684.034,LL5NN,NN_5
1,bas,ste,1,130518,bas_ste_run1_130518,NP,5,3,muscle,4000,1,777,1,1,606628,615427,616204,106615,32,500.013,508.812,509.589,28.422,256.419,484.416,228.024,456.02,684.034,LL5NP,NP_5
1,bas,ste,1,130518,bas_ste_run1_130518,NP,8,2,bugs,2800,1,1137,1,1,621043,629841,630978,106615,33,514.428,523.226,524.363,28.422,256.419,484.416,228.024,456.02,684.034,not5NP,NP_8
1,bas,ste,1,130518,bas_ste_run1_130518,RN,5,1,fusion,4000,0,956,1,2,634241,643039,643995,106615,34,527.626,536.424,537.38,28.422,256.419,484.416,228.024,456.02,684.034,LL5RN,RN_5
1,bas,ste,1,130518,bas_ste_run1_130518,NN,8,2,shell,2800,1,1023,2,2,648638,657437,658460,106615,35,542.023,550.822,551.845,28.422,256.419,484.416,228.024,456.02,684.034,not5NN,NN_8
1,bas,ste,1,130518,bas_ste_run1_130518,NP,7,1,clue,1600,1,810,1,1,661836,670635,671445,106615,36,555.221,564.02,564.83,28.422,256.419,484.416,228.024,456.02,684.034,not5NP,NP_7
1,bas,ste,1,130518,bas_ste_run1_130518,NP,8,2,wife,4000,1,848,1,1,673834,682633,683481,106615,37,567.219,576.018,576.866,28.422,256.419,484.416,228.024,456.02,684.034,not5NP,NP_8
1,bas,ste,1,130518,bas_ste_run1_130518,NN,5,2,gift,1600,1,919,2,2,688232,697031,697950,106615,38,581.617,590.416,591.335,28.422,256.419,484.416,228.024,456.02,684.034,LL5NN,NN_5
1,bas,ste,1,130518,bas_ste_run1_130518,NP,6,1,food,1600,1,1301,1,1,700230,709029,710330,106615,39,593.615,602.414,603.715,28.422,256.419,484.416,228.024,456.02,684.034,not5NP,NP_6
1,bas,ste,1,130518,bas_ste_run1_130518,RN,8,1,ground,4000,0,1248,1,2,712228,721043,722291,106615,40,605.613,614.428,615.676,28.422,256.419,484.416,228.024,456.02,684.034,not5RN,RN_8
1,bas,ste,1,130518,bas_ste_run1_130518,NP,5,3,marker,1600,0,1384,2,1,726643,735441,736825,106615,41,620.028,628.826,630.21,28.422,256.419,484.416,228.024,456.02,684.034,LL5NP,NP_5
1,bas,ste,1,130518,bas_ste_run1_130518,NN,8,2,signal,1600,1,943,2,2,738641,747439,748382,106615,42,632.026,640.824,641.767,28.422,256.419,484.416,228.024,456.02,684.034,not5NN,NN_8
1,bas,ste,1,130518,bas_ste_run1_130518,NP,5,3,curve,2800,0,1159,2,1,750639,759437,760596,106615,43,644.024,652.822,653.981,28.422,256.419,484.416,228.024,456.02,684.034,LL5NP,NP_5
1,bas,ste,1,130518,bas_ste_run1_130518,NN,7,2,pledge,4000,1,949,2,2,763837,772635,773584,106615,44,657.222,666.02,666.969,28.422,256.419,484.416,228.024,456.02,684.034,not5NN,NN_7
1,bas,ste,1,130518,bas_ste_run1_130518,NN,7,2,berry,2800,1,905,2,2,778234,787033,787938,106615,45,671.619,680.418,681.323,28.422,256.419,484.416,228.024,456.02,684.034,not5NN,NN_7
1,bas,ste,2,130518,bas_ste_run2_130518,NP,5,3,north,2800,1,795,1,1,75705,84504,85299,44897,1,30.808,39.607,40.402,28.408,256.422,484.419,228.026,456.023,684.02,LL5NP,NP_5
1,bas,ste,2,130518,bas_ste_run2_130518,NP,5,3,ransom,2800,1,902,1,1,88903,97718,98620,44897,2,44.006,52.821,53.723,28.408,256.422,484.419,228.026,456.023,684.02,LL5NP,NP_5
1,bas,ste,2,130518,bas_ste_run2_130518,NN,5,2,chin,1600,1,933,2,2,102117,110916,111849,44897,3,57.22,66.019,66.952,28.408,256.422,484.419,228.026,456.023,684.02,LL5NN,NN_5
1,bas,ste,2,130518,bas_ste_run2_130518,NN,6,1,whale,4000,1,1047,2,2,114116,122914,123961,44897,4,69.219,78.017,79.064,28.408,256.422,484.419,228.026,456.023,684.02,not5NN,NN_6
1,bas,ste,2,130518,bas_ste_run2_130518,NN,8,2,cotton,4000,1,812,2,2,128513,137312,138124,44897,5,83.616,92.415,93.227,28.408,256.422,484.419,228.026,456.023,684.02,not5NN,NN_8
1,bas,ste,2,130518,bas_ste_run2_130518,NP,5,3,wheel,4000,1,1328,1,1,142911,151709,153037,44897,6,98.014,106.812,108.14,28.408,256.422,484.419,228.026,456.023,684.02,LL5NP,NP_5
1,bas,ste,2,130518,bas_ste_run2_130518,RN,5,1,cabin,2800,0,939,1,2,157309,166107,167046,44897,7,112.412,121.21,122.149,28.408,256.422,484.419,228.026,456.023,684.02,LL5RN,RN_5
1,bas,ste,2,130518,bas_ste_run2_130518,NN,5,2,hatch,1600,1,977,2,2,170506,179305,180282,44897,8,125.609,134.408,135.385,28.408,256.422,484.419,228.026,456.023,684.02,LL5NN,NN_5
1,bas,ste,2,130518,bas_ste_run2_130518,NN,7,1,flame,2800,1,748,2,2,182505,191303,192051,44897,9,137.608,146.406,147.154,28.408,256.422,484.419,228.026,456.023,684.02,not5NN,NN_7
1,bas,ste,2,130518,bas_ste_run2_130518,NP,6,1,dollar,2800,1,1196,1,1,195719,204518,205714,44897,10,150.822,159.621,160.817,28.408,256.422,484.419,228.026,456.023,684.02,not5NP,NP_6
1,bas,ste,2,130518,bas_ste_run2_130518,NP,8,2,exam,4000,1,866,1,1,208917,217716,218582,44897,11,164.02,172.819,173.685,28.408,256.422,484.419,228.026,456.023,684.02,not5NP,NP_8
1,bas,ste,2,130518,bas_ste_run2_130518,NN,8,2,lesson,1600,1,983,2,2,223315,232113,233096,44897,12,178.418,187.216,188.199,28.408,256.422,484.419,228.026,456.023,684.02,not5NN,NN_8
1,bas,ste,2,130518,bas_ste_run2_130518,NP,7,1,teeth,4000,0,1581,2,1,235313,244111,245692,44897,13,190.416,199.214,200.795,28.408,256.422,484.419,228.026,456.023,684.02,not5NP,NP_7
1,bas,ste,2,130518,bas_ste_run2_130518,NP,8,2,kids,1600,1,953,1,1,249710,258509,259462,44897,14,204.813,213.612,214.565,28.408,256.422,484.419,228.026,456.023,684.02,not5NP,NP_8
1,bas,ste,2,130518,bas_ste_run2_130518,RN,7,1,jars,1600,0,996,1,2,261709,270507,271503,44897,15,216.812,225.61,226.606,28.408,256.422,484.419,228.026,456.023,684.02,not5RN,RN_7
1,bas,ste,2,130518,bas_ste_run2_130518,NP,5,3,harp,1600,1,777,1,1,303718,312517,313294,44897,16,258.821,267.62,268.397,28.408,256.422,484.419,228.026,456.023,684.02,LL5NP,NP_5
1,bas,ste,2,130518,bas_ste_run2_130518,NN,8,2,sled,1600,0,935,1,2,315716,324515,325450,44897,17,270.819,279.618,280.553,28.408,256.422,484.419,228.026,456.023,684.02,not5NN,NN_8
1,bas,ste,2,130518,bas_ste_run2_130518,RN,8,1,house,4000,1,1132,2,2,327715,336513,337645,44897,18,282.818,291.616,292.748,28.408,256.422,484.419,228.026,456.023,684.02,not5RN,RN_8
1,bas,ste,2,130518,bas_ste_run2_130518,NP,5,3,store,4000,1,864,1,1,342112,350911,351775,44897,19,297.215,306.014,306.878,28.408,256.422,484.419,228.026,456.023,684.02,LL5NP,NP_5
1,bas,ste,2,130518,bas_ste_run2_130518,RN,5,1,soil,4000,0,1832,1,2,356510,365309,367141,44897,20,311.613,320.412,322.244,28.408,256.422,484.419,228.026,456.023,684.02,LL5RN,RN_5
1,bas,ste,2,130518,bas_ste_run2_130518,NN,6,1,zebra,4000,1,1145,2,2,370908,379706,380851,44897,21,326.011,334.809,335.954,28.408,256.422,484.419,228.026,456.023,684.02,not5NN,NN_6
1,bas,ste,2,130518,bas_ste_run2_130518,NP,8,2,action,1600,1,1030,1,1,385305,394104,395134,44897,22,340.408,349.207,350.237,28.408,256.422,484.419,228.026,456.023,684.02,not5NP,NP_8
1,bas,ste,2,130518,bas_ste_run2_130518,NN,7,1,poison,1600,1,1000,2,2,397303,406119,407119,44897,23,352.406,361.222,362.222,28.408,256.422,484.419,228.026,456.023,684.02,not5NN,NN_7
1,bas,ste,2,130518,bas_ste_run2_130518,NN,5,2,heaven,2800,1,750,2,2,409318,418117,418867,44897,24,364.421,373.22,373.97,28.408,256.422,484.419,228.026,456.023,684.02,LL5NN,NN_5
1,bas,ste,2,130518,bas_ste_run2_130518,NP,8,2,text,2800,0,1919,2,1,422516,431315,433234,44897,25,377.619,386.418,388.337,28.408,256.422,484.419,228.026,456.023,684.02,not5NP,NP_8
1,bas,ste,2,130518,bas_ste_run2_130518,NP,5,3,others,2800,1,1042,1,1,435714,444513,445555,44897,26,390.817,399.616,400.658,28.408,256.422,484.419,228.026,456.023,684.02,LL5NP,NP_5
1,bas,ste,2,130518,bas_ste_run2_130518,NP,7,2,crime,4000,1,854,1,1,448912,457710,458564,44897,27,404.015,412.813,413.667,28.408,256.422,484.419,228.026,456.023,684.02,not5NP,NP_7
1,bas,ste,2,130518,bas_ste_run2_130518,NN,5,2,barber,2800,1,1089,2,2,463310,472108,473197,44897,28,418.413,427.211,428.3,28.408,256.422,484.419,228.026,456.023,684.02,LL5NN,NN_5
1,bas,ste,2,130518,bas_ste_run2_130518,NN,8,2,steel,2800,1,1214,2,2,476507,485306,486520,44897,29,431.61,440.409,441.623,28.408,256.422,484.419,228.026,456.023,684.02,not5NN,NN_8
1,bas,ste,2,130518,bas_ste_run2_130518,NP,7,2,cherry,1600,1,898,1,1,489705,498504,499402,44897,30,444.808,453.607,454.505,28.408,256.422,484.419,228.026,456.023,684.02,not5NP,NP_7
1,bas,ste,2,130518,bas_ste_run2_130518,NN,7,2,book,4000,1,1246,2,2,531715,540514,541760,44897,31,486.818,495.617,496.863,28.408,256.422,484.419,228.026,456.023,684.02,not5NN,NN_7
1,bas,ste,2,130518,bas_ste_run2_130518,NP,7,1,photo,4000,1,1251,1,1,546113,554911,556162,44897,32,501.216,510.014,511.265,28.408,256.422,484.419,228.026,456.023,684.02,not5NP,NP_7
1,bas,ste,2,130518,bas_ste_run2_130518,NP,6,1,profit,2800,1,1539,1,1,560511,569309,570848,44897,33,515.614,524.412,525.951,28.408,256.422,484.419,228.026,456.023,684.02,not5NP,NP_6
1,bas,ste,2,130518,bas_ste_run2_130518,NN,7,2,word,1600,1,1060,2,2,573708,582507,583567,44897,34,528.811,537.61,538.67,28.408,256.422,484.419,228.026,456.023,684.02,not5NN,NN_7
1,bas,ste,2,130518,bas_ste_run2_130518,NP,8,3,paper,4000,1,1205,1,1,585707,594505,595710,44897,35,540.81,549.608,550.813,28.408,256.422,484.419,228.026,456.023,684.02,not5NP,NP_8
1,bas,ste,2,130518,bas_ste_run2_130518,NP,8,3,pony,4000,1,727,1,1,600104,608903,609630,44897,36,555.207,564.006,564.733,28.408,256.422,484.419,228.026,456.023,684.02,not5NP,NP_8
1,bas,ste,2,130518,bas_ste_run2_130518,NP,5,3,fluid,1600,1,771,1,1,614519,623317,624088,44897,37,569.622,578.42,579.191,28.408,256.422,484.419,228.026,456.023,684.02,LL5NP,NP_5
1,bas,ste,2,130518,bas_ste_run2_130518,NN,8,1,church,2800,1,781,2,2,626517,635315,636096,44897,38,581.62,590.418,591.199,28.408,256.422,484.419,228.026,456.023,684.02,not5NN,NN_8
1,bas,ste,2,130518,bas_ste_run2_130518,NN,5,2,story,4000,1,760,2,2,639715,648513,649273,44897,39,594.818,603.616,604.376,28.408,256.422,484.419,228.026,456.023,684.02,LL5NN,NN_5
1,bas,ste,2,130518,bas_ste_run2_130518,NP,5,3,yard,2800,1,1232,1,1,654112,662911,664143,44897,40,609.215,618.014,619.246,28.408,256.422,484.419,228.026,456.023,684.02,LL5NP,NP_5
1,bas,ste,2,130518,bas_ste_run2_130518,RN,5,1,owner,2800,1,1044,2,2,667310,676109,677153,44897,41,622.413,631.212,632.256,28.408,256.422,484.419,228.026,456.023,684.02,LL5RN,RN_5
1,bas,ste,2,130518,bas_ste_run2_130518,NP,5,3,honey,1600,1,956,1,1,680508,689307,690263,44897,42,635.611,644.41,645.366,28.408,256.422,484.419,228.026,456.023,684.02,LL5NP,NP_5
1,bas,ste,2,130518,bas_ste_run2_130518,NN,6,1,cows,1600,1,1212,2,2,692506,701305,702517,44897,43,647.609,656.408,657.62,28.408,256.422,484.419,228.026,456.023,684.02,not5NN,NN_6
1,bas,ste,2,130518,bas_ste_run2_130518,NP,8,3,pilot,1600,1,1230,1,1,704504,713303,714533,44897,44,659.607,668.406,669.636,28.408,256.422,484.419,228.026,456.023,684.02,not5NP,NP_8
1,bas,ste,2,130518,bas_ste_run2_130518,NN,5,2,train,2800,1,912,2,2,716519,725317,726229,44897,45,671.622,680.42,681.332,28.408,256.422,484.419,228.026,456.023,684.02,LL5NN,NN_5
1,pro,ste,1,130518,pro_ste_run1_130518,NN,2,2,vision,4000,0,0,,2,149656,158454,0,118841,1,30.815,39.613,-118.841,28.415,256.429,484.426,228.033,456.031,684.028,not5NN,NN_2
1,pro,ste,1,130518,pro_ste_run1_130518,NP,5,3,park,1600,1,1157,1,1,164053,172869,174026,118841,2,45.212,54.028,55.185,28.415,256.429,484.426,228.033,456.031,684.028,LL5NP,NP_5
1,pro,ste,1,130518,pro_ste_run1_130518,NN,4,1,idea,4000,1,1058,2,2,176068,184867,185925,118841,3,57.227,66.026,67.084,28.415,256.429,484.426,228.033,456.031,684.028,not5NN,NN_4
1,pro,ste,1,130518,pro_ste_run1_130518,NP,5,3,boiler,1600,1,1373,1,1,190466,199265,200638,118841,4,71.625,80.424,81.797,28.415,256.429,484.426,228.033,456.031,684.028,LL5NP,NP_5
1,pro,ste,1,130518,pro_ste_run1_130518,NP,3,2,ranch,4000,1,807,1,1,202464,211263,212070,118841,5,83.623,92.422,93.229,28.415,256.429,484.426,228.033,456.031,684.028,not5NP,NP_3
1,pro,ste,1,130518,pro_ste_run1_130518,NN,5,2,deed,1600,1,1053,2,2,216862,225660,226713,118841,6,98.021,106.819,107.872,28.415,256.429,484.426,228.033,456.031,684.028,LL5NN,NN_5
1,pro,ste,1,130518,pro_ste_run1_130518,NN,2,2,access,2800,1,1122,2,2,228860,237658,238780,118841,7,110.019,118.817,119.939,28.415,256.429,484.426,228.033,456.031,684.028,not5NN,NN_2
1,pro,ste,1,130518,pro_ste_run1_130518,NP,4,1,ways,2800,1,1117,1,1,242058,250856,251973,118841,8,123.217,132.015,133.132,28.415,256.429,484.426,228.033,456.031,684.028,not5NP,NP_4
1,pro,ste,1,130518,pro_ste_run1_130518,RN,5,1,keeper,2800,0,949,1,2,255256,264054,265003,118841,9,136.415,145.213,146.162,28.415,256.429,484.426,228.033,456.031,684.028,LL5RN,RN_5
1,pro,ste,1,130518,pro_ste_run1_130518,NN,5,2,item,1600,1,748,2,2,268454,277269,278017,118841,10,149.613,158.428,159.176,28.415,256.429,484.426,228.033,456.031,684.028,LL5NN,NN_5
1,pro,ste,1,130518,pro_ste_run1_130518,NN,3,1,hope,1600,0,964,1,2,280468,289267,290231,118841,11,161.627,170.426,171.39,28.415,256.429,484.426,228.033,456.031,684.028,not5NN,NN_3
1,pro,ste,1,130518,pro_ste_run1_130518,NP,5,3,parent,2800,1,843,1,1,292466,301265,302108,118841,12,173.625,182.424,183.267,28.415,256.429,484.426,228.033,456.031,684.028,LL5NP,NP_5
1,pro,ste,1,130518,pro_ste_run1_130518,NP,2,2,dryer,2800,1,1213,1,1,305664,314463,315676,118841,13,186.823,195.622,196.835,28.415,256.429,484.426,228.033,456.031,684.028,not5NP,NP_2
1,pro,ste,1,130518,pro_ste_run1_130518,NP,2,2,suit,4000,1,555,1,1,318862,327661,328216,118841,14,200.021,208.82,209.375,28.415,256.429,484.426,228.033,456.031,684.028,not5NP,NP_2
1,pro,ste,1,130518,pro_ste_run1_130518,NP,3,2,nail,4000,1,829,1,1,333260,342059,342888,118841,15,214.419,223.218,224.047,28.415,256.429,484.426,228.033,456.031,684.028,not5NP,NP_3
1,pro,ste,1,130518,pro_ste_run1_130518,NP,5,3,menu,1600,1,742,1,1,377653,386468,387210,118841,16,258.812,267.627,268.369,28.415,256.429,484.426,228.033,456.031,684.028,LL5NP,NP_5
1,pro,ste,1,130518,pro_ste_run1_130518,NN,5,2,rage,4000,1,951,2,2,389668,398466,399417,118841,17,270.827,279.625,280.576,28.415,256.429,484.426,228.033,456.031,684.028,LL5NN,NN_5
1,pro,ste,1,130518,pro_ste_run1_130518,NN,2,2,laser,2800,1,849,2,2,404065,412864,413713,118841,18,285.224,294.023,294.872,28.415,256.429,484.426,228.033,456.031,684.028,not5NN,NN_2
1,pro,ste,1,130518,pro_ste_run1_130518,NP,2,3,wool,2800,1,724,1,1,417263,426062,426786,118841,19,298.422,307.221,307.945,28.415,256.429,484.426,228.033,456.031,684.028,not5NP,NP_2
1,pro,ste,1,130518,pro_ste_run1_130518,NP,5,3,color,1600,1,734,1,1,430461,439260,439994,118841,20,311.62,320.419,321.153,28.415,256.429,484.426,228.033,456.031,684.028,LL5NP,NP_5
1,pro,ste,1,130518,pro_ste_run1_130518,NP,3,2,saint,1600,1,664,1,1,442459,451258,451922,118841,21,323.618,332.417,333.081,28.415,256.429,484.426,228.033,456.031,684.028,not5NP,NP_3
1,pro,ste,1,130518,pro_ste_run1_130518,NN,4,1,critic,4000,1,782,2,2,454457,463256,464038,118841,22,335.616,344.415,345.197,28.415,256.429,484.426,228.033,456.031,684.028,not5NN,NN_4
1,pro,ste,1,130518,pro_ste_run1_130518,NN,5,2,roses,2800,1,827,2,2,468855,477654,478481,118841,23,350.014,358.813,359.64,28.415,256.429,484.426,228.033,456.031,684.028,LL5NN,NN_5
1,pro,ste,1,130518,pro_ste_run1_130518,NN,3,1,rumor,4000,1,1156,2,2,482053,490868,492024,118841,24,363.212,372.027,373.183,28.415,256.429,484.426,228.033,456.031,684.028,not5NN,NN_3
1,pro,ste,1,130518,pro_ste_run1_130518,NP,3,2,heel,2800,1,940,1,1,496467,505266,506206,118841,25,377.626,386.425,387.365,28.415,256.429,484.426,228.033,456.031,684.028,not5NP,NP_3
1,pro,ste,1,130518,pro_ste_run1_130518,RN,5,1,shell,4000,0,1888,1,2,509665,518464,520352,118841,26,390.824,399.623,401.511,28.415,256.429,484.426,228.033,456.031,684.028,LL5RN,RN_5
1,pro,ste,1,130518,pro_ste_run1_130518,NP,5,3,review,2800,1,750,1,1,524063,532862,533612,118841,27,405.222,414.021,414.771,28.415,256.429,484.426,228.033,456.031,684.028,LL5NP,NP_5
1,pro,ste,1,130518,pro_ste_run1_130518,NN,2,2,rash,1600,1,814,2,2,537261,546060,546874,118841,28,418.42,427.219,428.033,28.415,256.429,484.426,228.033,456.031,684.028,not5NN,NN_2
1,pro,ste,1,130518,pro_ste_run1_130518,NP,2,3,chip,1600,1,954,1,1,549259,558058,559012,118841,29,430.418,439.217,440.171,28.415,256.429,484.426,228.033,456.031,684.028,not5NP,NP_2
1,pro,ste,1,130518,pro_ste_run1_130518,NP,2,3,parade,4000,1,800,1,1,561257,570056,570856,118841,30,442.416,451.215,452.015,28.415,256.429,484.426,228.033,456.031,684.028,not5NP,NP_2
1,pro,ste,1,130518,pro_ste_run1_130518,NP,4,1,verse,1600,1,1003,1,1,605667,614465,615468,118841,31,486.826,495.624,496.627,28.415,256.429,484.426,228.033,456.031,684.028,not5NP,NP_4
1,pro,ste,1,130518,pro_ste_run1_130518,NN,3,2,torch,4000,1,1053,2,2,617665,626464,627517,118841,32,498.824,507.623,508.676,28.415,256.429,484.426,228.033,456.031,684.028,not5NN,NN_3
1,pro,ste,1,130518,pro_ste_run1_130518,NN,5,2,deal,2800,1,838,2,2,632063,640861,641699,118841,33,513.222,522.02,522.858,28.415,256.429,484.426,228.033,456.031,684.028,LL5NN,NN_5
1,pro,ste,1,130518,pro_ste_run1_130518,NP,5,3,clay,2800,1,1066,1,1,645261,654059,655125,118841,34,526.42,535.218,536.284,28.415,256.429,484.426,228.033,456.031,684.028,LL5NP,NP_5
1,pro,ste,1,130518,pro_ste_run1_130518,NP,5,3,forest,1600,1,893,1,1,658458,667257,668150,118841,35,539.617,548.416,549.309,28.415,256.429,484.426,228.033,456.031,684.028,LL5NP,NP_5
1,pro,ste,1,130518,pro_ste_run1_130518,NP,3,1,charge,4000,1,775,1,1,670457,679255,680030,118841,36,551.616,560.414,561.189,28.415,256.429,484.426,228.033,456.031,684.028,not5NP,NP_3
1,pro,ste,1,130518,pro_ste_run1_130518,NN,2,2,moose,1600,1,1221,2,2,684854,693653,694874,118841,37,566.013,574.812,576.033,28.415,256.429,484.426,228.033,456.031,684.028,not5NN,NN_2
1,pro,ste,1,130518,pro_ste_run1_130518,RN,5,1,chest,2800,0,1690,1,2,696869,705668,707358,118841,38,578.028,586.827,588.517,28.415,256.429,484.426,228.033,456.031,684.028,LL5RN,RN_5
1,pro,ste,1,130518,pro_ste_run1_130518,NP,2,2,paste,4000,0,848,2,1,710067,718866,719714,118841,39,591.226,600.025,600.873,28.415,256.429,484.426,228.033,456.031,684.028,not5NP,NP_2
1,pro,ste,1,130518,pro_ste_run1_130518,NN,3,2,donor,2800,1,755,2,2,724465,733263,734018,118841,40,605.624,614.422,615.177,28.415,256.429,484.426,228.033,456.031,684.028,not5NN,NN_3
1,pro,ste,1,130518,pro_ste_run1_130518,NP,5,3,advice,2800,1,970,1,1,737663,746461,747431,118841,41,618.822,627.62,628.59,28.415,256.429,484.426,228.033,456.031,684.028,LL5NP,NP_5
1,pro,ste,1,130518,pro_ste_run1_130518,NN,2,2,work,1600,1,1042,2,2,750860,759659,760701,118841,42,632.019,640.818,641.86,28.415,256.429,484.426,228.033,456.031,684.028,not5NN,NN_2
1,pro,ste,1,130518,pro_ste_run1_130518,RN,2,1,bags,4000,1,1414,2,2,762859,771657,773071,118841,43,644.018,652.816,654.23,28.415,256.429,484.426,228.033,456.031,684.028,not5RN,RN_2
1,pro,ste,1,130518,pro_ste_run1_130518,NN,5,2,group,4000,1,1073,2,2,777256,786055,787128,118841,44,658.415,667.214,668.287,28.415,256.429,484.426,228.033,456.031,684.028,LL5NN,NN_5
1,pro,ste,1,130518,pro_ste_run1_130518,NP,2,2,guys,1600,1,933,1,1,791654,800469,801402,118841,45,672.813,681.628,682.561,28.415,256.429,484.426,228.033,456.031,684.028,not5NP,NP_2
1,pro,ste,2,130518,pro_ste_run2_130518,NN,4,1,campus,4000,1,1250,2,2,66110,74908,76158,35289,1,30.821,39.619,40.869,28.421,256.418,484.416,228.023,456.02,684.017,not5NN,NN_4
1,pro,ste,2,130518,pro_ste_run2_130518,NP,5,3,snap,4000,1,1011,1,1,80508,89306,90317,35289,2,45.219,54.017,55.028,28.421,256.418,484.416,228.023,456.02,684.017,LL5NP,NP_5
1,pro,ste,2,130518,pro_ste_run2_130518,NP,4,1,belief,2800,1,904,1,1,94905,103704,104608,35289,3,59.616,68.415,69.319,28.421,256.418,484.416,228.023,456.02,684.017,not5NP,NP_4
1,pro,ste,2,130518,pro_ste_run2_130518,NP,3,1,drip,1600,1,852,1,1,108103,116902,117754,35289,4,72.814,81.613,82.465,28.421,256.418,484.416,228.023,456.02,684.017,not5NP,NP_3
1,pro,ste,2,130518,pro_ste_run2_130518,NP,2,2,bottle,2800,1,855,1,1,120101,128900,129755,35289,5,84.812,93.611,94.466,28.421,256.418,484.416,228.023,456.02,684.017,not5NP,NP_2
1,pro,ste,2,130518,pro_ste_run2_130518,RN,5,1,level,1600,1,903,2,2,133299,142098,143001,35289,6,98.01,106.809,107.712,28.421,256.418,484.416,228.023,456.02,684.017,LL5RN,RN_5
1,pro,ste,2,130518,pro_ste_run2_130518,NN,2,2,spice,1600,1,908,2,2,145297,154096,155004,35289,7,110.008,118.807,119.715,28.421,256.418,484.416,228.023,456.02,684.017,not5NN,NN_2
1,pro,ste,2,130518,pro_ste_run2_130518,NN,2,2,coal,4000,1,1216,2,2,157312,166111,167327,35289,8,122.023,130.822,132.038,28.421,256.418,484.416,228.023,456.02,684.017,not5NN,NN_2
1,pro,ste,2,130518,pro_ste_run2_130518,NN,3,1,film,2800,1,1283,2,2,171710,180508,181791,35289,9,136.421,145.219,146.502,28.421,256.418,484.416,228.023,456.02,684.017,not5NN,NN_3
1,pro,ste,2,130518,pro_ste_run2_130518,RN,3,1,singer,2800,0,0,,2,184908,193706,0,35289,10,149.619,158.417,-35.289,28.421,256.418,484.416,228.023,456.02,684.017,not5RN,RN_3
1,pro,ste,2,130518,pro_ste_run2_130518,NN,5,2,herd,1600,1,1218,2,2,198106,206904,208122,35289,11,162.817,171.615,172.833,28.421,256.418,484.416,228.023,456.02,684.017,LL5NN,NN_5
1,pro,ste,2,130518,pro_ste_run2_130518,NP,5,3,flight,2800,1,1587,1,1,210104,218902,220489,35289,12,174.815,183.613,185.2,28.421,256.418,484.416,228.023,456.02,684.017,LL5NP,NP_5
1,pro,ste,2,130518,pro_ste_run2_130518,NP,2,2,quote,1600,1,793,1,1,223302,232100,232893,35289,13,188.013,196.811,197.604,28.421,256.418,484.416,228.023,456.02,684.017,not5NP,NP_2
1,pro,ste,2,130518,pro_ste_run2_130518,NN,5,2,fury,4000,1,1142,2,2,235300,244098,245240,35289,14,200.011,208.809,209.951,28.421,256.418,484.416,228.023,456.02,684.017,LL5NN,NN_5
1,pro,ste,2,130518,pro_ste_run2_130518,NP,5,3,stroke,4000,0,1218,2,1,249697,258496,259714,35289,15,214.408,223.207,224.425,28.421,256.418,484.416,228.023,456.02,684.017,LL5NP,NP_5
1,pro,ste,2,130518,pro_ste_run2_130518,NP,3,2,gold,4000,1,824,1,1,294107,302906,303730,35289,16,258.818,267.617,268.441,28.421,256.418,484.416,228.023,456.02,684.017,not5NP,NP_3
1,pro,ste,2,130518,pro_ste_run2_130518,NP,3,2,sailor,4000,1,737,1,1,308505,317303,318040,35289,17,273.216,282.014,282.751,28.421,256.418,484.416,228.023,456.02,684.017,not5NP,NP_3
1,pro,ste,2,130518,pro_ste_run2_130518,NP,5,3,thing,1600,1,841,1,1,322902,331701,332542,35289,18,287.613,296.412,297.253,28.421,256.418,484.416,228.023,456.02,684.017,LL5NP,NP_5
1,pro,ste,2,130518,pro_ste_run2_130518,NN,5,2,kids,2800,1,956,2,2,334901,343699,344655,35289,19,299.612,308.41,309.366,28.421,256.418,484.416,228.023,456.02,684.017,LL5NN,NN_5
1,pro,ste,2,130518,pro_ste_run2_130518,RN,2,1,onion,2800,0,1232,1,2,348098,356897,358129,35289,20,312.809,321.608,322.84,28.421,256.418,484.416,228.023,456.02,684.017,not5RN,RN_2
1,pro,ste,2,130518,pro_ste_run2_130518,NP,5,3,grill,1600,0,0,,1,361296,370112,0,35289,21,326.007,334.823,-35.289,28.421,256.418,484.416,228.023,456.02,684.017,LL5NP,NP_5
1,pro,ste,2,130518,pro_ste_run2_130518,NN,4,1,barber,2800,1,1151,2,2,373311,382110,383261,35289,22,338.022,346.821,347.972,28.421,256.418,484.416,228.023,456.02,684.017,not5NN,NN_4
1,pro,ste,2,130518,pro_ste_run2_130518,NN,2,2,flaw,1600,1,1439,2,2,386509,395308,396747,35289,23,351.22,360.019,361.458,28.421,256.418,484.416,228.023,456.02,684.017,not5NN,NN_2
1,pro,ste,2,130518,pro_ste_run2_130518,NN,3,1,grain,4000,1,813,2,2,398507,407306,408119,35289,24,363.218,372.017,372.83,28.421,256.418,484.416,228.023,456.02,684.017,not5NN,NN_3
1,pro,ste,2,130518,pro_ste_run2_130518,NP,2,2,nerve,2800,0,1036,2,1,412905,421703,422739,35289,25,377.616,386.414,387.45,28.421,256.418,484.416,228.023,456.02,684.017,not5NP,NP_2
1,pro,ste,2,130518,pro_ste_run2_130518,NP,5,3,class,4000,1,1522,1,1,426103,434901,436423,35289,26,390.814,399.612,401.134,28.421,256.418,484.416,228.023,456.02,684.017,LL5NP,NP_5
1,pro,ste,2,130518,pro_ste_run2_130518,NN,2,2,tally,1600,1,1188,2,2,440501,449299,450487,35289,27,405.212,414.01,415.198,28.421,256.418,484.416,228.023,456.02,684.017,not5NN,NN_2
1,pro,ste,2,130518,pro_ste_run2_130518,NP,2,2,photo,4000,0,0,,1,452499,461297,0,35289,28,417.21,426.008,-35.289,28.421,256.418,484.416,228.023,456.02,684.017,not5NP,NP_2
1,pro,ste,2,130518,pro_ste_run2_130518,NN,5,2,zebra,1600,1,1156,2,2,466896,475712,476868,35289,29,431.607,440.423,441.579,28.421,256.418,484.416,228.023,456.02,684.017,LL5NN,NN_5
1,pro,ste,2,130518,pro_ste_run2_130518,RN,5,1,pupil,2800,1,1207,2,2,478911,487710,488917,35289,30,443.622,452.421,453.628,28.421,256.418,484.416,228.023,456.02,684.017,LL5RN,RN_5
1,pro,ste,2,130518,pro_ste_run2_130518,NN,2,1,list,2800,0,0,,2,522104,530903,0,35289,31,486.815,495.614,-35.289,28.421,256.418,484.416,228.023,456.02,684.017,not5NN,NN_2
1,pro,ste,2,130518,pro_ste_run2_130518,NP,3,1,tissue,2800,1,1018,1,1,535302,544101,545119,35289,32,500.013,508.812,509.83,28.421,256.418,484.416,228.023,456.02,684.017,not5NP,NP_3
1,pro,ste,2,130518,pro_ste_run2_130518,NP,2,3,point,4000,1,893,1,1,548500,557299,558192,35289,33,513.211,522.01,522.903,28.421,256.418,484.416,228.023,456.02,684.017,not5NP,NP_2
1,pro,ste,2,130518,pro_ste_run2_130518,NN,5,2,output,4000,1,793,2,2,562898,571696,572489,35289,34,527.609,536.407,537.2,28.421,256.418,484.416,228.023,456.02,684.017,LL5NN,NN_5
1,pro,ste,2,130518,pro_ste_run2_130518,NP,5,3,finger,4000,0,1100,2,1,577312,586111,587211,35289,35,542.023,550.822,551.922,28.421,256.418,484.416,228.023,456.02,684.017,LL5NP,NP_5
1,pro,ste,2,130518,pro_ste_run2_130518,NP,2,3,grace,1600,1,1362,1,1,591710,600508,601870,35289,36,556.421,565.219,566.581,28.421,256.418,484.416,228.023,456.02,684.017,not5NP,NP_2
1,pro,ste,2,130518,pro_ste_run2_130518,NN,3,2,filter,2800,0,0,,2,603708,612507,0,35289,37,568.419,577.218,-35.289,28.421,256.418,484.416,228.023,456.02,684.017,not5NN,NN_3
1,pro,ste,2,130518,pro_ste_run2_130518,NP,5,3,click,1600,1,880,1,1,616906,625704,626584,35289,38,581.617,590.415,591.295,28.421,256.418,484.416,228.023,456.02,684.017,LL5NP,NP_5
1,pro,ste,2,130518,pro_ste_run2_130518,NN,3,2,cows,2800,1,826,2,2,628904,637703,638529,35289,39,593.615,602.414,603.24,28.421,256.418,484.416,228.023,456.02,684.017,not5NN,NN_3
1,pro,ste,2,130518,pro_ste_run2_130518,RN,5,1,need,4000,0,0,,2,642102,650900,0,35289,40,606.813,615.611,-35.289,28.421,256.418,484.416,228.023,456.02,684.017,LL5RN,RN_5
1,pro,ste,2,130518,pro_ste_run2_130518,NP,5,3,void,1600,1,910,1,1,656500,665298,666208,35289,41,621.211,630.009,630.919,28.421,256.418,484.416,228.023,456.02,684.017,LL5NP,NP_5
1,pro,ste,2,130518,pro_ste_run2_130518,NP,2,3,talent,1600,1,559,1,1,668498,677296,677855,35289,42,633.209,642.007,642.566,28.421,256.418,484.416,228.023,456.02,684.017,not5NP,NP_2
1,pro,ste,2,130518,pro_ste_run2_130518,NP,4,1,clown,4000,0,1489,2,1,680496,689311,690800,35289,43,645.207,654.022,655.511,28.421,256.418,484.416,228.023,456.02,684.017,not5NP,NP_4
1,pro,ste,2,130518,pro_ste_run2_130518,NN,5,2,signal,1600,1,1171,2,2,694910,703709,704880,35289,44,659.621,668.42,669.591,28.421,256.418,484.416,228.023,456.02,684.017,LL5NN,NN_5
1,pro,ste,2,130518,pro_ste_run2_130518,NN,4,1,grip,2800,1,855,2,2,706908,715707,716562,35289,45,671.619,680.418,681.273,28.421,256.418,484.416,228.023,456.02,684.017,not5NN,NN_4
1,rea,ste,1,130518,rea_ste_run1_130518,NP,8,2,brow,2800,1,856,1,1,133342,142141,142997,102533,1,30.809,39.608,40.464,28.41,256.406,484.403,228.011,456.025,684.021,not5NP,NP_8
1,rea,ste,1,130518,rea_ste_run1_130518,RN,5,2,jets,4000,1,1236,2,2,146540,155339,156575,102533,2,44.007,52.806,54.042,28.41,256.406,484.403,228.011,456.025,684.021,LL5RN,RN_5
1,rea,ste,1,130518,rea_ste_run1_130518,NP,5,3,touch,1600,1,890,1,1,160938,169737,170627,102533,3,58.405,67.204,68.094,28.41,256.406,484.403,228.011,456.025,684.021,LL5NP,NP_5
1,rea,ste,1,130518,rea_ste_run1_130518,NP,5,3,pound,4000,1,761,1,1,172936,181735,182496,102533,4,70.403,79.202,79.963,28.41,256.406,484.403,228.011,456.025,684.021,LL5NP,NP_5
1,rea,ste,1,130518,rea_ste_run1_130518,RN,7,1,rivals,4000,1,1905,2,2,187334,196149,198054,102533,5,84.801,93.616,95.521,28.41,256.406,484.403,228.011,456.025,684.021,not5RN,RN_7
1,rea,ste,1,130518,rea_ste_run1_130518,NP,6,1,name,2800,1,904,1,1,201748,210547,211451,102533,6,99.215,108.014,108.918,28.41,256.406,484.403,228.011,456.025,684.021,not5NP,NP_6
1,rea,ste,1,130518,rea_ste_run1_130518,NP,7,2,world,1600,1,940,1,1,214946,223745,224685,102533,7,112.413,121.212,122.152,28.41,256.406,484.403,228.011,456.025,684.021,not5NP,NP_7
1,rea,ste,1,130518,rea_ste_run1_130518,RN,8,2,marker,2800,0,1129,1,2,226944,235743,236872,102533,8,124.411,133.21,134.339,28.41,256.406,484.403,228.011,456.025,684.021,not5RN,RN_8
1,rea,ste,1,130518,rea_ste_run1_130518,NP,5,3,wife,4000,1,1214,1,1,240142,248940,250154,102533,9,137.609,146.407,147.621,28.41,256.406,484.403,228.011,456.025,684.021,LL5NP,NP_5
1,rea,ste,1,130518,rea_ste_run1_130518,RN,5,2,paper,4000,1,1070,2,2,254540,263338,264408,102533,10,152.007,160.805,161.875,28.41,256.406,484.403,228.011,456.025,684.021,LL5RN,RN_5
1,rea,ste,1,130518,rea_ste_run1_130518,NN,5,1,chin,2800,0,725,1,2,268937,277736,278461,102533,11,166.404,175.203,175.928,28.41,256.406,484.403,228.011,456.025,684.021,LL5NN,NN_5
1,rea,ste,1,130518,rea_ste_run1_130518,NP,7,2,grill,1600,1,1181,1,1,282135,290950,292131,102533,12,179.602,188.417,189.598,28.41,256.406,484.403,228.011,456.025,684.021,not5NP,NP_7
1,rea,ste,1,130518,rea_ste_run1_130518,RN,8,2,rhyme,1600,0,1482,1,2,294150,302948,304430,102533,13,191.617,200.415,201.897,28.41,256.406,484.403,228.011,456.025,684.021,not5RN,RN_8
1,rea,ste,1,130518,rea_ste_run1_130518,NP,8,2,goods,1600,1,859,1,1,306148,314947,315806,102533,14,203.615,212.414,213.273,28.41,256.406,484.403,228.011,456.025,684.021,not5NP,NP_8
1,rea,ste,1,130518,rea_ste_run1_130518,RN,6,1,reign,2800,1,1080,2,2,318146,326945,328025,102533,15,215.613,224.412,225.492,28.41,256.406,484.403,228.011,456.025,684.021,not5RN,RN_6
1,rea,ste,1,130518,rea_ste_run1_130518,NP,5,3,harbor,2800,1,1233,1,1,361339,370138,371371,102533,16,258.806,267.605,268.838,28.41,256.406,484.403,228.011,456.025,684.021,LL5NP,NP_5
1,rea,ste,1,130518,rea_ste_run1_130518,RN,7,1,boat,4000,0,1032,1,2,374537,383336,384368,102533,17,272.004,280.803,281.835,28.41,256.406,484.403,228.011,456.025,684.021,not5RN,RN_7
1,rea,ste,1,130518,rea_ste_run1_130518,RN,8,2,hour,1600,1,1519,2,2,388935,397750,399269,102533,18,286.402,295.217,296.736,28.41,256.406,484.403,228.011,456.025,684.021,not5RN,RN_8
1,rea,ste,1,130518,rea_ste_run1_130518,NP,8,3,tongue,2800,1,1073,1,1,400949,409748,410821,102533,19,298.416,307.215,308.288,28.41,256.406,484.403,228.011,456.025,684.021,not5NP,NP_8
1,rea,ste,1,130518,rea_ste_run1_130518,RN,6,1,beam,2800,1,1064,2,2,414147,422946,424010,102533,20,311.614,320.413,321.477,28.41,256.406,484.403,228.011,456.025,684.021,not5RN,RN_6
1,rea,ste,1,130518,rea_ste_run1_130518,NN,5,1,ruler,2800,1,1321,2,2,427345,436144,437465,102533,21,324.812,333.611,334.932,28.41,256.406,484.403,228.011,456.025,684.021,LL5NN,NN_5
1,rea,ste,1,130518,rea_ste_run1_130518,NP,5,3,dryer,4000,0,1221,2,1,440543,449342,450563,102533,22,338.01,346.809,348.03,28.41,256.406,484.403,228.011,456.025,684.021,LL5NP,NP_5
1,rea,ste,1,130518,rea_ste_run1_130518,RN,8,2,jazz,2800,1,1010,2,2,454941,463739,464749,102533,23,352.408,361.206,362.216,28.41,256.406,484.403,228.011,456.025,684.021,not5RN,RN_8
1,rea,ste,1,130518,rea_ste_run1_130518,RN,5,2,blaze,1600,1,1466,2,2,468139,476937,478403,102533,24,365.606,374.404,375.87,28.41,256.406,484.403,228.011,456.025,684.021,LL5RN,RN_5
1,rea,ste,1,130518,rea_ste_run1_130518,NP,8,3,visit,4000,1,1006,1,1,480137,488935,489941,102533,25,377.604,386.402,387.408,28.41,256.406,484.403,228.011,456.025,684.021,not5NP,NP_8
1,rea,ste,1,130518,rea_ste_run1_130518,RN,5,2,ideals,4000,0,1199,1,2,494534,503350,504549,102533,26,392.001,400.817,402.016,28.41,256.406,484.403,228.011,456.025,684.021,LL5RN,RN_5
1,rea,ste,1,130518,rea_ste_run1_130518,NP,5,3,plate,1600,0,991,2,1,508949,517747,518738,102533,27,406.416,415.214,416.205,28.41,256.406,484.403,228.011,456.025,684.021,LL5NP,NP_5
1,rea,ste,1,130518,rea_ste_run1_130518,NP,7,2,spark,1600,1,1040,1,1,520947,529745,530785,102533,28,418.414,427.212,428.252,28.41,256.406,484.403,228.011,456.025,684.021,not5NP,NP_7
1,rea,ste,1,130518,rea_ste_run1_130518,NP,8,3,males,4000,0,1219,2,1,532945,541744,542963,102533,29,430.412,439.211,440.43,28.41,256.406,484.403,228.011,456.025,684.021,not5NP,NP_8
1,rea,ste,1,130518,rea_ste_run1_130518,NP,7,2,setup,1600,0,1937,2,1,547343,556141,558078,102533,30,444.81,453.608,455.545,28.41,256.406,484.403,228.011,456.025,684.021,not5NP,NP_7
1,rea,ste,1,130518,rea_ste_run1_130518,NP,5,3,answer,1600,0,1359,2,1,589336,598134,599493,102533,31,486.803,495.601,496.96,28.41,256.406,484.403,228.011,456.025,684.021,LL5NP,NP_5
1,rea,ste,1,130518,rea_ste_run1_130518,RN,5,2,hawk,4000,1,1097,2,2,601334,610149,611246,102533,32,498.801,507.616,508.713,28.41,256.406,484.403,228.011,456.025,684.021,LL5RN,RN_5
1,rea,ste,1,130518,rea_ste_run1_130518,NN,8,1,train,2800,1,746,2,2,615748,624547,625293,102533,33,513.215,522.014,522.76,28.41,256.406,484.403,228.011,456.025,684.021,not5NN,NN_8
1,rea,ste,1,130518,rea_ste_run1_130518,RN,8,2,poppy,1600,1,1157,2,2,628946,637745,638902,102533,34,526.413,535.212,536.369,28.41,256.406,484.403,228.011,456.025,684.021,not5RN,RN_8
1,rea,ste,1,130518,rea_ste_run1_130518,RN,7,2,wave,1600,0,1150,1,2,640944,649743,650893,102533,35,538.411,547.21,548.36,28.41,256.406,484.403,228.011,456.025,684.021,not5RN,RN_7
1,rea,ste,1,130518,rea_ste_run1_130518,RN,8,2,days,4000,0,990,1,2,652942,661741,662731,102533,36,550.409,559.208,560.198,28.41,256.406,484.403,228.011,456.025,684.021,not5RN,RN_8
1,rea,ste,1,130518,rea_ste_run1_130518,RN,7,2,need,2800,1,972,2,2,667340,676139,677111,102533,37,564.807,573.606,574.578,28.41,256.406,484.403,228.011,456.025,684.021,not5RN,RN_7
1,rea,ste,1,130518,rea_ste_run1_130518,NP,5,3,hose,4000,1,1087,1,1,680538,689337,690424,102533,38,578.005,586.804,587.891,28.41,256.406,484.403,228.011,456.025,684.021,LL5NP,NP_5
1,rea,ste,1,130518,rea_ste_run1_130518,RN,5,2,drip,1600,0,1181,1,2,694936,703734,704915,102533,39,592.403,601.201,602.382,28.41,256.406,484.403,228.011,456.025,684.021,LL5RN,RN_5
1,rea,ste,1,130518,rea_ste_run1_130518,NN,5,1,finger,4000,1,1203,2,2,706934,715749,716952,102533,40,604.401,613.216,614.419,28.41,256.406,484.403,228.011,456.025,684.021,LL5NN,NN_5
1,rea,ste,1,130518,rea_ste_run1_130518,NP,8,2,charge,4000,1,1070,1,1,721348,730147,731217,102533,41,618.815,627.614,628.684,28.41,256.406,484.403,228.011,456.025,684.021,not5NP,NP_8
1,rea,ste,1,130518,rea_ste_run1_130518,NP,7,1,drum,1600,1,874,1,1,735746,744544,745418,102533,42,633.213,642.011,642.885,28.41,256.406,484.403,228.011,456.025,684.021,not5NP,NP_7
1,rea,ste,1,130518,rea_ste_run1_130518,NP,5,3,spell,2800,1,1502,1,1,747744,756542,758044,102533,43,645.211,654.009,655.511,28.41,256.406,484.403,228.011,456.025,684.021,LL5NP,NP_5
1,rea,ste,1,130518,rea_ste_run1_130518,NP,6,1,people,2800,0,0,,1,760942,769740,0,102533,44,658.409,667.207,-102.533,28.41,256.406,484.403,228.011,456.025,684.021,not5NP,NP_6
1,rea,ste,1,130518,rea_ste_run1_130518,NP,8,2,rattle,2800,0,962,2,1,774140,782938,783900,102533,45,671.607,680.405,681.367,28.41,256.406,484.403,228.011,456.025,684.021,not5NP,NP_8
1,rea,ste,2,130518,rea_ste_run2_130518,NN,5,1,food,1600,1,914,2,2,75429,84228,85142,44616,1,30.813,39.612,40.526,28.413,256.41,484.424,228.015,456.028,684.025,LL5NN,NN_5
1,rea,ste,2,130518,rea_ste_run2_130518,NP,8,2,rider,4000,0,1261,2,1,87427,96226,97487,44616,2,42.811,51.61,52.871,28.413,256.41,484.424,228.015,456.028,684.025,not5NP,NP_8
1,rea,ste,2,130518,rea_ste_run2_130518,RN,8,2,slug,2800,1,1003,2,2,101825,110623,111626,44616,3,57.209,66.007,67.01,28.413,256.41,484.424,228.015,456.028,684.025,not5RN,RN_8
1,rea,ste,2,130518,rea_ste_run2_130518,RN,8,2,witch,1600,0,925,1,2,115023,123838,124763,44616,4,70.407,79.222,80.147,28.413,256.41,484.424,228.015,456.028,684.025,not5RN,RN_8
1,rea,ste,2,130518,rea_ste_run2_130518,RN,5,2,stain,4000,1,1552,2,2,127037,135836,137388,44616,5,82.421,91.22,92.772,28.413,256.41,484.424,228.015,456.028,684.025,LL5RN,RN_5
1,rea,ste,2,130518,rea_ste_run2_130518,NN,7,1,herd,4000,1,786,2,2,141435,150234,151020,44616,6,96.819,105.618,106.404,28.413,256.41,484.424,228.015,456.028,684.025,not5NN,NN_7
1,rea,ste,2,130518,rea_ste_run2_130518,NP,7,1,flag,1600,1,865,1,1,155833,164631,165496,44616,7,111.217,120.015,120.88,28.413,256.41,484.424,228.015,456.028,684.025,not5NP,NP_7
1,rea,ste,2,130518,rea_ste_run2_130518,RN,6,1,maid,1600,1,847,2,2,167831,176629,177476,44616,8,123.215,132.013,132.86,28.413,256.41,484.424,228.015,456.028,684.025,not5RN,RN_6
1,rea,ste,2,130518,rea_ste_run2_130518,NP,6,1,wall,2800,1,947,1,1,179829,188628,189575,44616,9,135.213,144.012,144.959,28.413,256.41,484.424,228.015,456.028,684.025,not5NP,NP_6
1,rea,ste,2,130518,rea_ste_run2_130518,NP,5,3,zipper,4000,1,878,1,1,193027,201825,202703,44616,10,148.411,157.209,158.087,28.413,256.41,484.424,228.015,456.028,684.025,LL5NP,NP_5
1,rea,ste,2,130518,rea_ste_run2_130518,RN,5,2,pair,2800,1,881,2,2,207425,216223,217104,44616,11,162.809,171.607,172.488,28.413,256.41,484.424,228.015,456.028,684.025,LL5RN,RN_5
1,rea,ste,2,130518,rea_ste_run2_130518,NP,8,2,tree,4000,1,927,1,1,220622,229438,230365,44616,12,176.006,184.822,185.749,28.413,256.41,484.424,228.015,456.028,684.025,not5NP,NP_8
1,rea,ste,2,130518,rea_ste_run2_130518,NP,5,3,photo,2800,1,639,1,1,235037,243835,244474,44616,13,190.421,199.219,199.858,28.413,256.41,484.424,228.015,456.028,684.025,LL5NP,NP_5
1,rea,ste,2,130518,rea_ste_run2_130518,NP,5,3,girl,1600,1,1238,1,1,248235,257033,258271,44616,14,203.619,212.417,213.655,28.413,256.41,484.424,228.015,456.028,684.025,LL5NP,NP_5
1,rea,ste,2,130518,rea_ste_run2_130518,RN,7,1,quart,2800,0,1173,1,2,260233,269031,270204,44616,15,215.617,224.415,225.588,28.413,256.41,484.424,228.015,456.028,684.025,not5RN,RN_7
1,rea,ste,2,130518,rea_ste_run2_130518,NN,8,1,rest,1600,1,878,2,2,303426,312224,313102,44616,16,258.81,267.608,268.486,28.413,256.41,484.424,228.015,456.028,684.025,not5NN,NN_8
1,rea,ste,2,130518,rea_ste_run2_130518,NP,7,2,singer,4000,1,784,1,1,315424,324222,325006,44616,17,270.808,279.606,280.39,28.413,256.41,484.424,228.015,456.028,684.025,not5NP,NP_7
1,rea,ste,2,130518,rea_ste_run2_130518,RN,8,2,prince,2800,1,1286,2,2,329822,338637,339923,44616,18,285.206,294.021,295.307,28.413,256.41,484.424,228.015,456.028,684.025,not5RN,RN_8
1,rea,ste,2,130518,rea_ste_run2_130518,NP,5,3,pals,4000,1,962,1,1,343036,351835,352797,44616,19,298.42,307.219,308.181,28.413,256.41,484.424,228.015,456.028,684.025,LL5NP,NP_5
1,rea,ste,2,130518,rea_ste_run2_130518,NP,5,3,cotton,1600,1,888,1,1,357434,366232,367120,44616,20,312.818,321.616,322.504,28.413,256.41,484.424,228.015,456.028,684.025,LL5NP,NP_5
1,rea,ste,2,130518,rea_ste_run2_130518,NP,5,3,chest,4000,1,717,1,1,369432,378230,378947,44616,21,324.816,333.614,334.331,28.413,256.41,484.424,228.015,456.028,684.025,LL5NP,NP_5
1,rea,ste,2,130518,rea_ste_run2_130518,NP,8,2,dawn,2800,0,932,2,1,383830,392628,393560,44616,22,339.214,348.012,348.944,28.413,256.41,484.424,228.015,456.028,684.025,not5NP,NP_8
1,rea,ste,2,130518,rea_ste_run2_130518,RN,5,2,praise,4000,1,1330,2,2,397027,405826,407156,44616,23,352.411,361.21,362.54,28.413,256.41,484.424,228.015,456.028,684.025,LL5RN,RN_5
1,rea,ste,2,130518,rea_ste_run2_130518,RN,5,2,walker,2800,1,840,2,2,411425,420224,421064,44616,24,366.809,375.608,376.448,28.413,256.41,484.424,228.015,456.028,684.025,LL5RN,RN_5
1,rea,ste,2,130518,rea_ste_run2_130518,NN,5,1,grass,1600,1,1038,2,2,424623,433438,434476,44616,25,380.007,388.822,389.86,28.413,256.41,484.424,228.015,456.028,684.025,LL5NN,NN_5
1,rea,ste,2,130518,rea_ste_run2_130518,NP,8,2,charm,2800,1,1050,1,1,436638,445436,446486,44616,26,392.022,400.82,401.87,28.413,256.41,484.424,228.015,456.028,684.025,not5NP,NP_8
1,rea,ste,2,130518,rea_ste_run2_130518,RN,8,2,barber,4000,1,1120,2,2,449836,458634,459754,44616,27,405.22,414.018,415.138,28.413,256.41,484.424,228.015,456.028,684.025,not5RN,RN_8
1,rea,ste,2,130518,rea_ste_run2_130518,RN,6,1,motor,1600,1,1186,2,2,464233,473032,474218,44616,28,419.617,428.416,429.602,28.413,256.41,484.424,228.015,456.028,684.025,not5RN,RN_6
1,rea,ste,2,130518,rea_ste_run2_130518,RN,7,1,east,1600,0,868,1,2,476231,485030,485898,44616,29,431.615,440.414,441.282,28.413,256.41,484.424,228.015,456.028,684.025,not5RN,RN_7
1,rea,ste,2,130518,rea_ste_run2_130518,NP,7,2,oats,2800,1,768,1,1,488230,497028,497796,44616,30,443.614,452.412,453.18,28.413,256.41,484.424,228.015,456.028,684.025,not5NP,NP_7
1,rea,ste,2,130518,rea_ste_run2_130518,NP,8,3,slip,4000,1,689,1,1,531423,540238,540927,44616,31,486.807,495.622,496.311,28.413,256.41,484.424,228.015,456.028,684.025,not5NP,NP_8
1,rea,ste,2,130518,rea_ste_run2_130518,RN,7,2,note,2800,0,1278,1,2,545837,554636,555914,44616,32,501.221,510.02,511.298,28.413,256.41,484.424,228.015,456.028,684.025,not5RN,RN_7
1,rea,ste,2,130518,rea_ste_run2_130518,RN,5,2,tile,1600,0,1481,1,2,559035,567833,569314,44616,33,514.419,523.217,524.698,28.413,256.41,484.424,228.015,456.028,684.025,LL5RN,RN_5
1,rea,ste,2,130518,rea_ste_run2_130518,NP,5,3,winner,1600,1,711,1,1,571033,579832,580543,44616,34,526.417,535.216,535.927,28.413,256.41,484.424,228.015,456.028,684.025,LL5NP,NP_5
1,rea,ste,2,130518,rea_ste_run2_130518,NN,5,1,flick,2800,1,1263,2,2,583031,591830,593093,44616,35,538.415,547.214,548.477,28.413,256.41,484.424,228.015,456.028,684.025,LL5NN,NN_5
1,rea,ste,2,130518,rea_ste_run2_130518,NP,8,3,glove,1600,1,1059,1,1,596229,605027,606086,44616,36,551.613,560.411,561.47,28.413,256.41,484.424,228.015,456.028,684.025,not5NP,NP_8
1,rea,ste,2,130518,rea_ste_run2_130518,RN,5,2,list,4000,1,759,2,2,608227,617026,617785,44616,37,563.611,572.41,573.169,28.413,256.41,484.424,228.015,456.028,684.025,LL5RN,RN_5
1,rea,ste,2,130518,rea_ste_run2_130518,NP,5,3,beach,1600,1,955,1,1,622625,631423,632378,44616,38,578.009,586.807,587.762,28.413,256.41,484.424,228.015,456.028,684.025,LL5NP,NP_5
1,rea,ste,2,130518,rea_ste_run2_130518,NP,5,3,bugs,2800,1,1044,1,1,634623,643438,644482,44616,39,590.007,598.822,599.866,28.413,256.41,484.424,228.015,456.028,684.025,LL5NP,NP_5
1,rea,ste,2,130518,rea_ste_run2_130518,NP,7,1,suit,1600,1,656,1,1,647837,656636,657292,44616,40,603.221,612.02,612.676,28.413,256.41,484.424,228.015,456.028,684.025,not5NP,NP_7
1,rea,ste,2,130518,rea_ste_run2_130518,RN,8,1,dock,4000,1,1022,2,2,659835,668634,669656,44616,41,615.219,624.018,625.04,28.413,256.41,484.424,228.015,456.028,684.025,not5RN,RN_8
1,rea,ste,2,130518,rea_ste_run2_130518,RN,6,1,folder,4000,0,1340,1,2,674233,683032,684372,44616,42,629.617,638.416,639.756,28.413,256.41,484.424,228.015,456.028,684.025,not5RN,RN_6
1,rea,ste,2,130518,rea_ste_run2_130518,NP,8,3,owner,2800,1,859,1,1,688631,697429,698288,44616,43,644.015,652.813,653.672,28.413,256.41,484.424,228.015,456.028,684.025,not5NP,NP_8
1,rea,ste,2,130518,rea_ste_run2_130518,NP,6,1,washer,2800,1,721,1,1,701829,710627,711348,44616,44,657.213,666.011,666.732,28.413,256.41,484.424,228.015,456.028,684.025,not5NP,NP_6
1,rea,ste,2,130518,rea_ste_run2_130518,RN,7,2,void,4000,0,981,1,2,715026,723825,724806,44616,45,670.41,679.209,680.19,28.413,256.41,484.424,228.015,456.028,684.025,not5RN,RN_7
1,bas,ste,1,132017,bas_ste_run1_132017,NP,5,3,syrup,1600,0,0,,1,115977,124775,0,85160,1,30.817,39.615,-85.16,28.417,256.431,484.428,228.035,456.033,684.03,LL5NP,NP_5
1,bas,ste,1,132017,bas_ste_run1_132017,NN,8,2,scale,4000,1,1018,2,2,127975,136790,137808,85160,2,42.815,51.63,52.648,28.417,256.431,484.428,228.035,456.033,684.03,not5NN,NN_8
1,bas,ste,1,132017,bas_ste_run1_132017,NN,8,2,doll,2800,1,1014,2,2,142389,151188,152202,85160,3,57.229,66.028,67.042,28.417,256.431,484.428,228.035,456.033,684.03,not5NN,NN_8
1,bas,ste,1,132017,bas_ste_run1_132017,NP,5,3,threat,1600,0,1376,2,1,155587,164386,165762,85160,4,70.427,79.226,80.602,28.417,256.431,484.428,228.035,456.033,684.03,LL5NP,NP_5
1,bas,ste,1,132017,bas_ste_run1_132017,NN,6,1,parrot,2800,1,1581,2,2,167585,176384,177965,85160,5,82.425,91.224,92.805,28.417,256.431,484.428,228.035,456.033,684.03,not5NN,NN_6
1,bas,ste,1,132017,bas_ste_run1_132017,NP,8,2,chance,2800,1,875,1,1,180783,189582,190457,85160,6,95.623,104.422,105.297,28.417,256.431,484.428,228.035,456.033,684.03,not5NP,NP_8
1,bas,ste,1,132017,bas_ste_run1_132017,NN,5,2,blur,1600,1,1136,2,2,193981,202780,203916,85160,7,108.821,117.62,118.756,28.417,256.431,484.428,228.035,456.033,684.03,LL5NN,NN_5
1,bas,ste,1,132017,bas_ste_run1_132017,NP,7,2,rash,2800,1,1396,1,1,205979,214778,216174,85160,8,120.819,129.618,131.014,28.417,256.431,484.428,228.035,456.033,684.03,not5NP,NP_7
1,bas,ste,1,132017,bas_ste_run1_132017,NN,5,2,tube,4000,1,1282,2,2,219177,227976,229258,85160,9,134.017,142.816,144.098,28.417,256.431,484.428,228.035,456.033,684.03,LL5NN,NN_5
1,bas,ste,1,132017,bas_ste_run1_132017,NP,5,3,share,2800,1,1777,1,1,233575,242390,244167,85160,10,148.415,157.23,159.007,28.417,256.431,484.428,228.035,456.033,684.03,LL5NP,NP_5
1,bas,ste,1,132017,bas_ste_run1_132017,NP,7,2,wealth,1600,1,1140,1,1,246789,255588,256728,85160,11,161.629,170.428,171.568,28.417,256.431,484.428,228.035,456.033,684.03,not5NP,NP_7
1,bas,ste,1,132017,bas_ste_run1_132017,NP,8,2,bush,1600,1,1200,1,1,258787,267586,268786,85160,12,173.627,182.426,183.626,28.417,256.431,484.428,228.035,456.033,684.03,not5NP,NP_8
1,bas,ste,1,132017,bas_ste_run1_132017,NN,7,1,straw,4000,1,844,2,2,270786,279584,280428,85160,13,185.626,194.424,195.268,28.417,256.431,484.428,228.035,456.033,684.03,not5NN,NN_7
1,bas,ste,1,132017,bas_ste_run1_132017,NP,6,1,frost,4000,1,963,1,1,285183,293982,294945,85160,14,200.023,208.822,209.785,28.417,256.431,484.428,228.035,456.033,684.03,not5NP,NP_6
1,bas,ste,1,132017,bas_ste_run1_132017,RN,5,1,quart,4000,1,888,2,2,299581,308380,309268,85160,15,214.421,223.22,224.108,28.417,256.431,484.428,228.035,456.033,684.03,LL5RN,RN_5
1,bas,ste,1,132017,bas_ste_run1_132017,NN,6,1,taxi,1600,1,1116,2,2,343974,352789,353905,85160,16,258.814,267.629,268.745,28.417,256.431,484.428,228.035,456.033,684.03,not5NN,NN_6
1,bas,ste,1,132017,bas_ste_run1_132017,NN,8,2,liar,1600,1,1104,2,2,355989,364787,365891,85160,17,270.829,279.627,280.731,28.417,256.431,484.428,228.035,456.033,684.03,not5NN,NN_8
1,bas,ste,1,132017,bas_ste_run1_132017,NP,7,2,need,2800,1,1357,1,1,367987,376785,378142,85160,18,282.827,291.625,292.982,28.417,256.431,484.428,228.035,456.033,684.03,not5NP,NP_7
1,bas,ste,1,132017,bas_ste_run1_132017,NP,7,2,bean,4000,1,980,1,1,381185,389983,390963,85160,19,296.025,304.823,305.803,28.417,256.431,484.428,228.035,456.033,684.03,not5NP,NP_7
1,bas,ste,1,132017,bas_ste_run1_132017,NP,8,3,bees,2800,1,1013,1,1,395582,404381,405394,85160,20,310.422,319.221,320.234,28.417,256.431,484.428,228.035,456.033,684.03,not5NP,NP_8
1,bas,ste,1,132017,bas_ste_run1_132017,NP,5,3,visit,4000,1,847,1,1,408780,417579,418426,85160,21,323.62,332.419,333.266,28.417,256.431,484.428,228.035,456.033,684.03,LL5NP,NP_5
1,bas,ste,1,132017,bas_ste_run1_132017,NN,7,1,logic,1600,0,843,1,2,423178,431977,432820,85160,22,338.018,346.817,347.66,28.417,256.431,484.428,228.035,456.033,684.03,not5NN,NN_7
1,bas,ste,1,132017,bas_ste_run1_132017,NP,5,3,people,4000,0,817,2,1,435176,443975,444792,85160,23,350.016,358.815,359.632,28.417,256.431,484.428,228.035,456.033,684.03,LL5NP,NP_5
1,bas,ste,1,132017,bas_ste_run1_132017,NN,8,2,heater,1600,1,1210,2,2,449574,458389,459599,85160,24,364.414,373.229,374.439,28.417,256.431,484.428,228.035,456.033,684.03,not5NN,NN_8
1,bas,ste,1,132017,bas_ste_run1_132017,RN,5,1,noise,2800,1,1117,2,2,461589,470387,471504,85160,25,376.429,385.227,386.344,28.417,256.431,484.428,228.035,456.033,684.03,LL5RN,RN_5
1,bas,ste,1,132017,bas_ste_run1_132017,NN,5,2,pole,2800,1,940,2,2,474787,483585,484525,85160,26,389.627,398.425,399.365,28.417,256.431,484.428,228.035,456.033,684.03,LL5NN,NN_5
1,bas,ste,1,132017,bas_ste_run1_132017,NP,8,3,city,4000,1,1011,1,1,487985,496783,497794,85160,27,402.825,411.623,412.634,28.417,256.431,484.428,228.035,456.033,684.03,not5NP,NP_8
1,bas,ste,1,132017,bas_ste_run1_132017,NP,8,3,carpet,1600,1,1134,1,1,502382,511181,512315,85160,28,417.222,426.021,427.155,28.417,256.431,484.428,228.035,456.033,684.03,not5NP,NP_8
1,bas,ste,1,132017,bas_ste_run1_132017,NP,5,3,tags,4000,1,1114,1,1,514380,523179,524293,85160,29,429.22,438.019,439.133,28.417,256.431,484.428,228.035,456.033,684.03,LL5NP,NP_5
1,bas,ste,1,132017,bas_ste_run1_132017,NN,5,2,greed,2800,1,1987,2,2,528778,537577,539564,85160,30,443.618,452.417,454.404,28.417,256.431,484.428,228.035,456.033,684.03,LL5NN,NN_5
1,bas,ste,1,132017,bas_ste_run1_132017,NN,5,2,pans,1600,1,1125,2,2,571988,580787,581912,85160,31,486.828,495.627,496.752,28.417,256.431,484.428,228.035,456.033,684.03,LL5NN,NN_5
1,bas,ste,1,132017,bas_ste_run1_132017,NP,5,3,muscle,4000,1,847,1,1,583986,592785,593632,85160,32,498.826,507.625,508.472,28.417,256.431,484.428,228.035,456.033,684.03,LL5NP,NP_5
1,bas,ste,1,132017,bas_ste_run1_132017,NP,8,2,bugs,2800,1,1695,1,1,598384,607182,608877,85160,33,513.224,522.022,523.717,28.417,256.431,484.428,228.035,456.033,684.03,not5NP,NP_8
1,bas,ste,1,132017,bas_ste_run1_132017,RN,5,1,fusion,4000,1,737,2,2,611582,620380,621117,85160,34,526.422,535.22,535.957,28.417,256.431,484.428,228.035,456.033,684.03,LL5RN,RN_5
1,bas,ste,1,132017,bas_ste_run1_132017,NN,8,2,shell,4000,1,1294,2,2,625979,634778,636072,85160,35,540.819,549.618,550.912,28.417,256.431,484.428,228.035,456.033,684.03,not5NN,NN_8
1,bas,ste,1,132017,bas_ste_run1_132017,NP,7,1,clue,1600,1,895,1,1,640377,649176,650071,85160,36,555.217,564.016,564.911,28.417,256.431,484.428,228.035,456.033,684.03,not5NP,NP_7
1,bas,ste,1,132017,bas_ste_run1_132017,NP,8,2,wife,2800,1,994,1,1,652375,661174,662168,85160,37,567.215,576.014,577.008,28.417,256.431,484.428,228.035,456.033,684.03,not5NP,NP_8
1,bas,ste,1,132017,bas_ste_run1_132017,NN,5,2,gift,1600,1,1379,2,2,665590,674388,675767,85160,38,580.43,589.228,590.607,28.417,256.431,484.428,228.035,456.033,684.03,LL5NN,NN_5
1,bas,ste,1,132017,bas_ste_run1_132017,NP,6,1,food,1600,1,1815,1,1,677588,686386,688201,85160,39,592.428,601.226,603.041,28.417,256.431,484.428,228.035,456.033,684.03,not5NP,NP_6
1,bas,ste,1,132017,bas_ste_run1_132017,RN,8,1,ground,4000,0,0,,2,689586,698385,0,85160,40,604.426,613.225,-85.16,28.417,256.431,484.428,228.035,456.033,684.03,not5RN,RN_8
1,bas,ste,1,132017,bas_ste_run1_132017,NP,5,3,marker,2800,1,1267,1,1,703984,712782,714049,85160,41,618.824,627.622,628.889,28.417,256.431,484.428,228.035,456.033,684.03,LL5NP,NP_5
1,bas,ste,1,132017,bas_ste_run1_132017,NN,8,2,signal,2800,1,1150,2,2,717182,725980,727130,85160,42,632.022,640.82,641.97,28.417,256.431,484.428,228.035,456.033,684.03,not5NN,NN_8
1,bas,ste,1,132017,bas_ste_run1_132017,NP,5,3,curve,4000,1,1024,1,1,730380,739178,740202,85160,43,645.22,654.018,655.042,28.417,256.431,484.428,228.035,456.033,684.03,LL5NP,NP_5
1,bas,ste,1,132017,bas_ste_run1_132017,NN,7,2,pledge,2800,0,0,,2,744777,753576,0,85160,44,659.617,668.416,-85.16,28.417,256.431,484.428,228.035,456.033,684.03,not5NN,NN_7
1,bas,ste,1,132017,bas_ste_run1_132017,NN,7,2,berry,1600,1,1016,2,2,757975,766774,767790,85160,45,672.815,681.614,682.63,28.417,256.431,484.428,228.035,456.033,684.03,not5NN,NN_7
1,bas,ste,2,132017,bas_ste_run2_132017,NP,5,3,north,2800,1,1295,1,1,83433,92231,93526,52622,1,30.811,39.609,40.904,28.411,256.408,484.422,228.03,456.027,684.024,LL5NP,NP_5
1,bas,ste,2,132017,bas_ste_run2_132017,NP,5,3,ransom,2800,1,1084,1,1,96631,105429,106513,52622,2,44.009,52.807,53.891,28.411,256.408,484.422,228.03,456.027,684.024,LL5NP,NP_5
1,bas,ste,2,132017,bas_ste_run2_132017,NN,5,2,chin,4000,1,964,2,2,109829,118644,119608,52622,3,57.207,66.022,66.986,28.411,256.408,484.422,228.03,456.027,684.024,LL5NN,NN_5
1,bas,ste,2,132017,bas_ste_run2_132017,NN,6,1,whale,1600,1,1130,2,2,124243,133042,134172,52622,4,71.621,80.42,81.55,28.411,256.408,484.422,228.03,456.027,684.024,not5NN,NN_6
1,bas,ste,2,132017,bas_ste_run2_132017,NN,8,2,cotton,2800,1,902,2,2,136241,145040,145942,52622,5,83.619,92.418,93.32,28.411,256.408,484.422,228.03,456.027,684.024,not5NN,NN_8
1,bas,ste,2,132017,bas_ste_run2_132017,NP,5,3,wheel,4000,1,948,1,1,149439,158238,159186,52622,6,96.817,105.616,106.564,28.411,256.408,484.422,228.03,456.027,684.024,LL5NP,NP_5
1,bas,ste,2,132017,bas_ste_run2_132017,RN,5,1,cabin,1600,1,1647,2,2,163837,172635,174282,52622,7,111.215,120.013,121.66,28.411,256.408,484.422,228.03,456.027,684.024,LL5RN,RN_5
1,bas,ste,2,132017,bas_ste_run2_132017,NN,5,2,hatch,4000,1,808,2,2,175835,184634,185442,52622,8,123.213,132.012,132.82,28.411,256.408,484.422,228.03,456.027,684.024,LL5NN,NN_5
1,bas,ste,2,132017,bas_ste_run2_132017,NN,7,1,flame,1600,1,985,2,2,190233,199031,200016,52622,9,137.611,146.409,147.394,28.411,256.408,484.422,228.03,456.027,684.024,not5NN,NN_7
1,bas,ste,2,132017,bas_ste_run2_132017,NP,6,1,dollar,4000,1,1258,1,1,202231,211029,212287,52622,10,149.609,158.407,159.665,28.411,256.408,484.422,228.03,456.027,684.024,not5NP,NP_6
1,bas,ste,2,132017,bas_ste_run2_132017,NP,8,2,exam,2800,1,780,1,1,216645,225444,226224,52622,11,164.023,172.822,173.602,28.411,256.408,484.422,228.03,456.027,684.024,not5NP,NP_8
1,bas,ste,2,132017,bas_ste_run2_132017,NN,8,2,lesson,4000,1,852,2,2,229843,238642,239494,52622,12,177.221,186.02,186.872,28.411,256.408,484.422,228.03,456.027,684.024,not5NN,NN_8
1,bas,ste,2,132017,bas_ste_run2_132017,NP,7,1,teeth,1600,1,1174,1,1,244241,253039,254213,52622,13,191.619,200.417,201.591,28.411,256.408,484.422,228.03,456.027,684.024,not5NP,NP_7
1,bas,ste,2,132017,bas_ste_run2_132017,NP,8,2,kids,2800,1,995,1,1,256239,265037,266032,52622,14,203.617,212.415,213.41,28.411,256.408,484.422,228.03,456.027,684.024,not5NP,NP_8
1,bas,ste,2,132017,bas_ste_run2_132017,RN,7,1,jars,1600,0,1209,1,2,269437,278235,279444,52622,15,216.815,225.613,226.822,28.411,256.408,484.422,228.03,456.027,684.024,not5RN,RN_7
1,bas,ste,2,132017,bas_ste_run2_132017,NP,5,3,harp,2800,1,996,1,1,311430,320245,321241,52622,16,258.808,267.623,268.619,28.411,256.408,484.422,228.03,456.027,684.024,LL5NP,NP_5
1,bas,ste,2,132017,bas_ste_run2_132017,NN,8,2,sled,4000,1,1344,2,2,324645,333443,334787,52622,17,272.023,280.821,282.165,28.411,256.408,484.422,228.03,456.027,684.024,not5NN,NN_8
1,bas,ste,2,132017,bas_ste_run2_132017,RN,8,1,house,4000,1,1036,2,2,339042,347841,348877,52622,18,286.42,295.219,296.255,28.411,256.408,484.422,228.03,456.027,684.024,not5RN,RN_8
1,bas,ste,2,132017,bas_ste_run2_132017,NP,5,3,store,2800,1,934,1,1,353440,362239,363173,52622,19,300.818,309.617,310.551,28.411,256.408,484.422,228.03,456.027,684.024,LL5NP,NP_5
1,bas,ste,2,132017,bas_ste_run2_132017,RN,5,1,soil,2800,0,1462,1,2,366638,375437,376899,52622,20,314.016,322.815,324.277,28.411,256.408,484.422,228.03,456.027,684.024,LL5RN,RN_5
1,bas,ste,2,132017,bas_ste_run2_132017,NN,6,1,zebra,1600,0,646,1,2,379836,388635,389281,52622,21,327.214,336.013,336.659,28.411,256.408,484.422,228.03,456.027,684.024,not5NN,NN_6
1,bas,ste,2,132017,bas_ste_run2_132017,NP,8,2,action,4000,1,1112,1,1,391834,400633,401745,52622,22,339.212,348.011,349.123,28.411,256.408,484.422,228.03,456.027,684.024,not5NP,NP_8
1,bas,ste,2,132017,bas_ste_run2_132017,NN,7,1,poison,2800,1,1017,2,2,406232,415030,416047,52622,23,353.61,362.408,363.425,28.411,256.408,484.422,228.03,456.027,684.024,not5NN,NN_7
1,bas,ste,2,132017,bas_ste_run2_132017,NN,5,2,heaven,2800,1,830,2,2,419430,428245,429075,52622,24,366.808,375.623,376.453,28.411,256.408,484.422,228.03,456.027,684.024,LL5NN,NN_5
1,bas,ste,2,132017,bas_ste_run2_132017,NP,8,2,text,4000,1,992,1,1,432644,441443,442435,52622,25,380.022,388.821,389.813,28.411,256.408,484.422,228.03,456.027,684.024,not5NP,NP_8
1,bas,ste,2,132017,bas_ste_run2_132017,NP,5,3,others,4000,1,874,1,1,447042,455841,456715,52622,26,394.42,403.219,404.093,28.411,256.408,484.422,228.03,456.027,684.024,LL5NP,NP_5
1,bas,ste,2,132017,bas_ste_run2_132017,NP,7,2,crime,1600,1,904,1,1,461440,470238,471142,52622,27,408.818,417.616,418.52,28.411,256.408,484.422,228.03,456.027,684.024,not5NP,NP_7
1,bas,ste,2,132017,bas_ste_run2_132017,NN,5,2,barber,1600,1,928,2,2,473438,482236,483164,52622,28,420.816,429.614,430.542,28.411,256.408,484.422,228.03,456.027,684.024,LL5NN,NN_5
1,bas,ste,2,132017,bas_ste_run2_132017,NN,8,2,steel,1600,1,881,2,2,485436,494235,495116,52622,29,432.814,441.613,442.494,28.411,256.408,484.422,228.03,456.027,684.024,not5NN,NN_8
1,bas,ste,2,132017,bas_ste_run2_132017,NP,7,2,cherry,1600,1,1228,1,1,497434,506233,507461,52622,30,444.812,453.611,454.839,28.411,256.408,484.422,228.03,456.027,684.024,not5NP,NP_7
1,bas,ste,2,132017,bas_ste_run2_132017,NN,7,2,book,1600,1,1181,2,2,539444,548243,549424,52622,31,486.822,495.621,496.802,28.411,256.408,484.422,228.03,456.027,684.024,not5NN,NN_7
1,bas,ste,2,132017,bas_ste_run2_132017,NP,7,1,photo,4000,0,1231,2,1,551442,560241,561472,52622,32,498.82,507.619,508.85,28.411,256.408,484.422,228.03,456.027,684.024,not5NP,NP_7
1,bas,ste,2,132017,bas_ste_run2_132017,NP,6,1,profit,2800,0,1031,2,1,565840,574638,575669,52622,33,513.218,522.016,523.047,28.411,256.408,484.422,228.03,456.027,684.024,not5NP,NP_6
1,bas,ste,2,132017,bas_ste_run2_132017,NN,7,2,word,1600,1,1075,2,2,579038,587836,588911,52622,34,526.416,535.214,536.289,28.411,256.408,484.422,228.03,456.027,684.024,not5NN,NN_7
1,bas,ste,2,132017,bas_ste_run2_132017,NP,8,3,paper,1600,1,1318,1,1,591036,599835,601153,52622,35,538.414,547.213,548.531,28.411,256.408,484.422,228.03,456.027,684.024,not5NP,NP_8
1,bas,ste,2,132017,bas_ste_run2_132017,NP,8,3,pony,2800,1,942,1,1,603034,611833,612775,52622,36,550.412,559.211,560.153,28.411,256.408,484.422,228.03,456.027,684.024,not5NP,NP_8
1,bas,ste,2,132017,bas_ste_run2_132017,NP,5,3,fluid,2800,1,1748,1,1,616232,625031,626779,52622,37,563.61,572.409,574.157,28.411,256.408,484.422,228.03,456.027,684.024,LL5NP,NP_5
1,bas,ste,2,132017,bas_ste_run2_132017,NN,8,1,church,4000,1,979,2,2,629430,638245,639224,52622,38,576.808,585.623,586.602,28.411,256.408,484.422,228.03,456.027,684.024,not5NN,NN_8
1,bas,ste,2,132017,bas_ste_run2_132017,NN,5,2,story,4000,1,939,2,2,643844,652643,653582,52622,39,591.222,600.021,600.96,28.411,256.408,484.422,228.03,456.027,684.024,LL5NN,NN_5
1,bas,ste,2,132017,bas_ste_run2_132017,NP,5,3,yard,2800,1,1059,1,1,658242,667041,668100,52622,40,605.62,614.419,615.478,28.411,256.408,484.422,228.03,456.027,684.024,LL5NP,NP_5
1,bas,ste,2,132017,bas_ste_run2_132017,RN,5,1,owner,2800,0,0,,2,671440,680238,0,52622,41,618.818,627.616,-52.622,28.411,256.408,484.422,228.03,456.027,684.024,LL5RN,RN_5
1,bas,ste,2,132017,bas_ste_run2_132017,NP,5,3,honey,4000,1,1171,1,1,684638,693436,694607,52622,42,632.016,640.814,641.985,28.411,256.408,484.422,228.03,456.027,684.024,LL5NP,NP_5
1,bas,ste,2,132017,bas_ste_run2_132017,NN,6,1,cows,4000,0,0,,2,699035,707834,0,52622,43,646.413,655.212,-52.622,28.411,256.408,484.422,228.03,456.027,684.024,not5NN,NN_6
1,bas,ste,2,132017,bas_ste_run2_132017,NP,8,3,pilot,1600,1,1225,1,1,713433,722232,723457,52622,44,660.811,669.61,670.835,28.411,256.408,484.422,228.03,456.027,684.024,not5NP,NP_8
1,bas,ste,2,132017,bas_ste_run2_132017,NN,5,2,train,1600,1,943,2,2,725431,734230,735173,52622,45,672.809,681.608,682.551,28.411,256.408,484.422,228.03,456.027,684.024,LL5NN,NN_5
1,pro,ste,1,132017,pro_ste_run1_132017,NN,2,2,vision,4000,1,1221,2,2,134112,142910,144131,103294,1,30.818,39.616,40.837,28.418,256.415,484.413,228.02,456.034,684.031,not5NN,NN_2
1,pro,ste,1,132017,pro_ste_run1_132017,NP,5,3,park,1600,1,1340,1,1,148509,157308,158648,103294,2,45.215,54.014,55.354,28.418,256.415,484.413,228.02,456.034,684.031,LL5NP,NP_5
1,pro,ste,1,132017,pro_ste_run1_132017,NN,4,1,idea,2800,1,1138,2,2,160507,169306,170444,103294,3,57.213,66.012,67.15,28.418,256.415,484.413,228.02,456.034,684.031,not5NN,NN_4
1,pro,ste,1,132017,pro_ste_run1_132017,NP,5,3,boiler,2800,1,884,1,1,173705,182504,183388,103294,4,70.411,79.21,80.094,28.418,256.415,484.413,228.02,456.034,684.031,LL5NP,NP_5
1,pro,ste,1,132017,pro_ste_run1_132017,NP,3,2,ranch,4000,1,1029,1,1,186920,195719,196748,103294,5,83.626,92.425,93.454,28.418,256.415,484.413,228.02,456.034,684.031,not5NP,NP_3
1,pro,ste,1,132017,pro_ste_run1_132017,NN,5,2,deed,4000,1,1078,2,2,201318,210116,211194,103294,6,98.024,106.822,107.9,28.418,256.415,484.413,228.02,456.034,684.031,LL5NN,NN_5
1,pro,ste,1,132017,pro_ste_run1_132017,NN,2,2,access,2800,1,1061,2,2,215715,224514,225575,103294,7,112.421,121.22,122.281,28.418,256.415,484.413,228.02,456.034,684.031,not5NN,NN_2
1,pro,ste,1,132017,pro_ste_run1_132017,NP,4,1,ways,4000,1,1178,1,1,228913,237712,238890,103294,8,125.619,134.418,135.596,28.418,256.415,484.413,228.02,456.034,684.031,not5NP,NP_4
1,pro,ste,1,132017,pro_ste_run1_132017,RN,5,1,keeper,1600,1,888,2,2,243311,252110,252998,103294,9,140.017,148.816,149.704,28.418,256.415,484.413,228.02,456.034,684.031,LL5RN,RN_5
1,pro,ste,1,132017,pro_ste_run1_132017,NN,5,2,item,2800,1,1015,2,2,255309,264108,265123,103294,10,152.015,160.814,161.829,28.418,256.415,484.413,228.02,456.034,684.031,LL5NN,NN_5
1,pro,ste,1,132017,pro_ste_run1_132017,NN,3,1,hope,2800,0,1733,1,2,268507,277306,279039,103294,11,165.213,174.012,175.745,28.418,256.415,484.413,228.02,456.034,684.031,not5NN,NN_3
1,pro,ste,1,132017,pro_ste_run1_132017,NP,5,3,parent,1600,1,1083,1,1,281705,290520,291603,103294,12,178.411,187.226,188.309,28.418,256.415,484.413,228.02,456.034,684.031,LL5NP,NP_5
1,pro,ste,1,132017,pro_ste_run1_132017,NP,2,2,dryer,4000,1,1091,1,1,293720,302518,303609,103294,13,190.426,199.224,200.315,28.418,256.415,484.413,228.02,456.034,684.031,not5NP,NP_2
1,pro,ste,1,132017,pro_ste_run1_132017,NP,2,2,suit,1600,1,1112,1,1,308117,316916,318028,103294,14,204.823,213.622,214.734,28.418,256.415,484.413,228.02,456.034,684.031,not5NP,NP_2
1,pro,ste,1,132017,pro_ste_run1_132017,NP,3,2,nail,1600,1,1018,1,1,320116,328914,329932,103294,15,216.822,225.62,226.638,28.418,256.415,484.413,228.02,456.034,684.031,not5NP,NP_3
1,pro,ste,1,132017,pro_ste_run1_132017,NP,5,3,menu,4000,1,975,1,1,362109,370907,371882,103294,16,258.815,267.613,268.588,28.418,256.415,484.413,228.02,456.034,684.031,LL5NP,NP_5
1,pro,ste,1,132017,pro_ste_run1_132017,NN,5,2,rage,1600,1,981,2,2,376507,385305,386286,103294,17,273.213,282.011,282.992,28.418,256.415,484.413,228.02,456.034,684.031,LL5NN,NN_5
1,pro,ste,1,132017,pro_ste_run1_132017,NN,2,2,laser,4000,1,804,2,2,388505,397320,398124,103294,18,285.211,294.026,294.83,28.418,256.415,484.413,228.02,456.034,684.031,not5NN,NN_2
1,pro,ste,1,132017,pro_ste_run1_132017,NP,2,3,wool,2800,1,999,1,1,402919,411718,412717,103294,19,299.625,308.424,309.423,28.418,256.415,484.413,228.02,456.034,684.031,not5NP,NP_2
1,pro,ste,1,132017,pro_ste_run1_132017,NP,5,3,color,2800,1,855,1,1,416117,424916,425771,103294,20,312.823,321.622,322.477,28.418,256.415,484.413,228.02,456.034,684.031,LL5NP,NP_5
1,pro,ste,1,132017,pro_ste_run1_132017,NP,3,2,saint,1600,1,1187,1,1,429315,438114,439301,103294,21,326.021,334.82,336.007,28.418,256.415,484.413,228.02,456.034,684.031,not5NP,NP_3
1,pro,ste,1,132017,pro_ste_run1_132017,NN,4,1,critic,4000,1,858,2,2,441313,450112,450970,103294,22,338.019,346.818,347.676,28.418,256.415,484.413,228.02,456.034,684.031,not5NN,NN_4
1,pro,ste,1,132017,pro_ste_run1_132017,NN,5,2,roses,1600,1,836,2,2,455711,464509,465345,103294,23,352.417,361.215,362.051,28.418,256.415,484.413,228.02,456.034,684.031,LL5NN,NN_5
1,pro,ste,1,132017,pro_ste_run1_132017,NN,3,1,rumor,2800,1,1496,2,2,467709,476507,478003,103294,24,364.415,373.213,374.709,28.418,256.415,484.413,228.02,456.034,684.031,not5NN,NN_3
1,pro,ste,1,132017,pro_ste_run1_132017,NP,3,2,heel,1600,0,0,,1,480907,489705,0,103294,25,377.613,386.411,-103.294,28.418,256.415,484.413,228.02,456.034,684.031,not5NP,NP_3
1,pro,ste,1,132017,pro_ste_run1_132017,RN,5,1,shell,4000,0,1737,1,2,492905,501720,503457,103294,26,389.611,398.426,400.163,28.418,256.415,484.413,228.02,456.034,684.031,LL5RN,RN_5
1,pro,ste,1,132017,pro_ste_run1_132017,NP,5,3,review,2800,1,996,1,1,507319,516118,517114,103294,27,404.025,412.824,413.82,28.418,256.415,484.413,228.02,456.034,684.031,LL5NP,NP_5
1,pro,ste,1,132017,pro_ste_run1_132017,NN,2,2,rash,2800,0,1081,1,2,520517,529316,530397,103294,28,417.223,426.022,427.103,28.418,256.415,484.413,228.02,456.034,684.031,not5NN,NN_2
1,pro,ste,1,132017,pro_ste_run1_132017,NP,2,3,chip,4000,1,840,1,1,533715,542514,543354,103294,29,430.421,439.22,440.06,28.418,256.415,484.413,228.02,456.034,684.031,not5NP,NP_2
1,pro,ste,1,132017,pro_ste_run1_132017,NP,2,3,parade,1600,1,977,1,1,548113,556911,557888,103294,30,444.819,453.617,454.594,28.418,256.415,484.413,228.02,456.034,684.031,not5NP,NP_2
1,pro,ste,1,132017,pro_ste_run1_132017,NP,4,1,verse,2800,1,1027,1,1,590106,598905,599932,103294,31,486.812,495.611,496.638,28.418,256.415,484.413,228.02,456.034,684.031,not5NP,NP_4
1,pro,ste,1,132017,pro_ste_run1_132017,NN,3,2,torch,2800,1,1752,2,2,603304,612119,613871,103294,32,500.01,508.825,510.577,28.418,256.415,484.413,228.02,456.034,684.031,not5NN,NN_3
1,pro,ste,1,132017,pro_ste_run1_132017,NN,5,2,deal,1600,1,1092,2,2,616519,625317,626409,103294,33,513.225,522.023,523.115,28.418,256.415,484.413,228.02,456.034,684.031,LL5NN,NN_5
1,pro,ste,1,132017,pro_ste_run1_132017,NP,5,3,clay,1600,1,1289,1,1,628517,637315,638604,103294,34,525.223,534.021,535.31,28.418,256.415,484.413,228.02,456.034,684.031,LL5NP,NP_5
1,pro,ste,1,132017,pro_ste_run1_132017,NP,5,3,forest,2800,1,828,1,1,640515,649313,650141,103294,35,537.221,546.019,546.847,28.418,256.415,484.413,228.02,456.034,684.031,LL5NP,NP_5
1,pro,ste,1,132017,pro_ste_run1_132017,NP,3,1,charge,2800,1,907,1,1,653713,662511,663418,103294,36,550.419,559.217,560.124,28.418,256.415,484.413,228.02,456.034,684.031,not5NP,NP_3
1,pro,ste,1,132017,pro_ste_run1_132017,NN,2,2,moose,4000,1,872,2,2,666911,675709,676581,103294,37,563.617,572.415,573.287,28.418,256.415,484.413,228.02,456.034,684.031,not5NN,NN_2
1,pro,ste,1,132017,pro_ste_run1_132017,RN,5,1,chest,1600,1,914,2,2,681308,690107,691021,103294,38,578.014,586.813,587.727,28.418,256.415,484.413,228.02,456.034,684.031,LL5RN,RN_5
1,pro,ste,1,132017,pro_ste_run1_132017,NP,2,2,paste,4000,1,944,1,1,693306,702105,703049,103294,39,590.012,598.811,599.755,28.418,256.415,484.413,228.02,456.034,684.031,not5NP,NP_2
1,pro,ste,1,132017,pro_ste_run1_132017,NN,3,2,donor,1600,1,1504,2,2,707704,716519,718023,103294,40,604.41,613.225,614.729,28.418,256.415,484.413,228.02,456.034,684.031,not5NN,NN_3
1,pro,ste,1,132017,pro_ste_run1_132017,NP,5,3,advice,1600,1,983,1,1,719719,728518,729501,103294,41,616.425,625.224,626.207,28.418,256.415,484.413,228.02,456.034,684.031,LL5NP,NP_5
1,pro,ste,1,132017,pro_ste_run1_132017,NN,2,2,work,2800,1,1632,2,2,731717,740516,742148,103294,42,628.423,637.222,638.854,28.418,256.415,484.413,228.02,456.034,684.031,not5NN,NN_2
1,pro,ste,1,132017,pro_ste_run1_132017,RN,2,1,bags,4000,0,971,1,2,744915,753714,754685,103294,43,641.621,650.42,651.391,28.418,256.415,484.413,228.02,456.034,684.031,not5RN,RN_2
1,pro,ste,1,132017,pro_ste_run1_132017,NN,5,2,group,4000,1,1854,2,2,759313,768111,769965,103294,44,656.019,664.817,666.671,28.418,256.415,484.413,228.02,456.034,684.031,LL5NN,NN_5
1,pro,ste,1,132017,pro_ste_run1_132017,NP,2,2,guys,4000,1,807,1,1,773710,782509,783316,103294,45,670.416,679.215,680.022,28.418,256.415,484.413,228.02,456.034,684.031,not5NP,NP_2
1,pro,ste,2,132017,pro_ste_run2_132017,NN,4,1,campus,4000,1,1082,2,2,69313,78112,79194,38496,1,30.817,39.616,40.698,28.418,256.415,484.412,228.019,456.017,684.014,not5NN,NN_4
1,pro,ste,2,132017,pro_ste_run2_132017,NP,5,3,snap,2800,1,1124,1,1,83711,92510,93634,38496,2,45.215,54.014,55.138,28.418,256.415,484.412,228.019,456.017,684.014,LL5NP,NP_5
1,pro,ste,2,132017,pro_ste_run2_132017,NP,4,1,belief,1600,1,1289,1,1,96909,105707,106996,38496,3,58.413,67.211,68.5,28.418,256.415,484.412,228.019,456.017,684.014,not5NP,NP_4
1,pro,ste,2,132017,pro_ste_run2_132017,NP,3,1,drip,2800,1,769,1,1,108907,117706,118475,38496,4,70.411,79.21,79.979,28.418,256.415,484.412,228.019,456.017,684.014,not5NP,NP_3
1,pro,ste,2,132017,pro_ste_run2_132017,NP,2,2,bottle,4000,1,718,1,1,122105,130903,131621,38496,5,83.609,92.407,93.125,28.418,256.415,484.412,228.019,456.017,684.014,not5NP,NP_2
1,pro,ste,2,132017,pro_ste_run2_132017,RN,5,1,level,1600,0,898,1,2,136503,145301,146199,38496,6,98.007,106.805,107.703,28.418,256.415,484.412,228.019,456.017,684.014,LL5RN,RN_5
1,pro,ste,2,132017,pro_ste_run2_132017,NN,2,2,spice,2800,1,1027,2,2,148501,157316,158343,38496,7,110.005,118.82,119.847,28.418,256.415,484.412,228.019,456.017,684.014,not5NN,NN_2
1,pro,ste,2,132017,pro_ste_run2_132017,NN,2,2,coal,2800,1,874,2,2,161715,170514,171388,38496,8,123.219,132.018,132.892,28.418,256.415,484.412,228.019,456.017,684.014,not5NN,NN_2
1,pro,ste,2,132017,pro_ste_run2_132017,NN,3,1,film,1600,1,951,2,2,174913,183712,184663,38496,9,136.417,145.216,146.167,28.418,256.415,484.412,228.019,456.017,684.014,not5NN,NN_3
1,pro,ste,2,132017,pro_ste_run2_132017,RN,3,1,singer,1600,1,1182,2,2,186911,195710,196892,38496,10,148.415,157.214,158.396,28.418,256.415,484.412,228.019,456.017,684.014,not5RN,RN_3
1,pro,ste,2,132017,pro_ste_run2_132017,NN,5,2,herd,1600,0,0,,2,198909,207708,0,38496,11,160.413,169.212,-38.496,28.418,256.415,484.412,228.019,456.017,684.014,LL5NN,NN_5
1,pro,ste,2,132017,pro_ste_run2_132017,NP,5,3,flight,4000,1,885,1,1,210907,219706,220591,38496,12,172.411,181.21,182.095,28.418,256.415,484.412,228.019,456.017,684.014,LL5NP,NP_5
1,pro,ste,2,132017,pro_ste_run2_132017,NP,2,2,quote,2800,1,806,1,1,225305,234104,234910,38496,13,186.809,195.608,196.414,28.418,256.415,484.412,228.019,456.017,684.014,not5NP,NP_2
1,pro,ste,2,132017,pro_ste_run2_132017,NN,5,2,fury,4000,1,761,2,2,238503,247302,248063,38496,14,200.007,208.806,209.567,28.418,256.415,484.412,228.019,456.017,684.014,LL5NN,NN_5
1,pro,ste,2,132017,pro_ste_run2_132017,NP,5,3,stroke,4000,1,1176,1,1,252901,261716,262892,38496,15,214.405,223.22,224.396,28.418,256.415,484.412,228.019,456.017,684.014,LL5NP,NP_5
1,pro,ste,2,132017,pro_ste_run2_132017,NP,3,2,gold,4000,1,939,1,1,297311,306109,307048,38496,16,258.815,267.613,268.552,28.418,256.415,484.412,228.019,456.017,684.014,not5NP,NP_3
1,pro,ste,2,132017,pro_ste_run2_132017,NP,3,2,sailor,4000,1,785,1,1,311708,320507,321292,38496,17,273.212,282.011,282.796,28.418,256.415,484.412,228.019,456.017,684.014,not5NP,NP_3
1,pro,ste,2,132017,pro_ste_run2_132017,NP,5,3,thing,1600,1,1089,1,1,326106,334905,335994,38496,18,287.61,296.409,297.498,28.418,256.415,484.412,228.019,456.017,684.014,LL5NP,NP_5
1,pro,ste,2,132017,pro_ste_run2_132017,NN,5,2,kids,2800,1,802,2,2,338104,346903,347705,38496,19,299.608,308.407,309.209,28.418,256.415,484.412,228.019,456.017,684.014,LL5NN,NN_5
1,pro,ste,2,132017,pro_ste_run2_132017,RN,2,1,onion,1600,1,796,2,2,351302,360101,360897,38496,20,312.806,321.605,322.401,28.418,256.415,484.412,228.019,456.017,684.014,not5RN,RN_2
1,pro,ste,2,132017,pro_ste_run2_132017,NP,5,3,grill,1600,0,1197,2,1,363300,372115,373312,38496,21,324.804,333.619,334.816,28.418,256.415,484.412,228.019,456.017,684.014,LL5NP,NP_5
1,pro,ste,2,132017,pro_ste_run2_132017,NN,4,1,barber,2800,1,952,2,2,375315,384113,385065,38496,22,336.819,345.617,346.569,28.418,256.415,484.412,228.019,456.017,684.014,not5NN,NN_4
1,pro,ste,2,132017,pro_ste_run2_132017,NN,2,2,flaw,4000,0,0,,2,388513,397311,0,38496,23,350.017,358.815,-38.496,28.418,256.415,484.412,228.019,456.017,684.014,not5NN,NN_2
1,pro,ste,2,132017,pro_ste_run2_132017,NN,3,1,grain,2800,1,1265,2,2,402910,411709,412974,38496,24,364.414,373.213,374.478,28.418,256.415,484.412,228.019,456.017,684.014,not5NN,NN_3
1,pro,ste,2,132017,pro_ste_run2_132017,NP,2,2,nerve,4000,1,1462,1,1,416108,424907,426369,38496,25,377.612,386.411,387.873,28.418,256.415,484.412,228.019,456.017,684.014,not5NP,NP_2
1,pro,ste,2,132017,pro_ste_run2_132017,NP,5,3,class,1600,1,1241,1,1,430506,439305,440546,38496,26,392.01,400.809,402.05,28.418,256.415,484.412,228.019,456.017,684.014,LL5NP,NP_5
1,pro,ste,2,132017,pro_ste_run2_132017,NN,2,2,tally,2800,1,694,2,2,442504,451303,451997,38496,27,404.008,412.807,413.501,28.418,256.415,484.412,228.019,456.017,684.014,not5NN,NN_2
1,pro,ste,2,132017,pro_ste_run2_132017,NP,2,2,photo,2800,1,679,1,1,455702,464501,465180,38496,28,417.206,426.005,426.684,28.418,256.415,484.412,228.019,456.017,684.014,not5NP,NP_2
1,pro,ste,2,132017,pro_ste_run2_132017,NN,5,2,zebra,1600,1,884,2,2,468900,477715,478599,38496,29,430.404,439.219,440.103,28.418,256.415,484.412,228.019,456.017,684.014,LL5NN,NN_5
1,pro,ste,2,132017,pro_ste_run2_132017,RN,5,1,pupil,4000,1,1652,2,2,480915,489713,491365,38496,30,442.419,451.217,452.869,28.418,256.415,484.412,228.019,456.017,684.014,LL5RN,RN_5
1,pro,ste,2,132017,pro_ste_run2_132017,NN,2,1,list,1600,1,1532,2,2,525308,534106,535638,38496,31,486.812,495.61,497.142,28.418,256.415,484.412,228.019,456.017,684.014,not5NN,NN_2
1,pro,ste,2,132017,pro_ste_run2_132017,NP,3,1,tissue,4000,1,959,1,1,537306,546104,547063,38496,32,498.81,507.608,508.567,28.418,256.415,484.412,228.019,456.017,684.014,not5NP,NP_3
1,pro,ste,2,132017,pro_ste_run2_132017,NP,2,3,point,1600,1,760,1,1,551704,560502,561262,38496,33,513.208,522.006,522.766,28.418,256.415,484.412,228.019,456.017,684.014,not5NP,NP_2
1,pro,ste,2,132017,pro_ste_run2_132017,NN,5,2,output,2800,1,1072,2,2,563702,572500,573572,38496,34,525.206,534.004,535.076,28.418,256.415,484.412,228.019,456.017,684.014,LL5NN,NN_5
1,pro,ste,2,132017,pro_ste_run2_132017,NP,5,3,finger,4000,1,934,1,1,576900,585715,586649,38496,35,538.404,547.219,548.153,28.418,256.415,484.412,228.019,456.017,684.014,LL5NP,NP_5
1,pro,ste,2,132017,pro_ste_run2_132017,NP,2,3,grace,1600,1,915,1,1,591314,600113,601028,38496,36,552.818,561.617,562.532,28.418,256.415,484.412,228.019,456.017,684.014,not5NP,NP_2
1,pro,ste,2,132017,pro_ste_run2_132017,NN,3,2,filter,2800,1,865,2,2,603312,612111,612976,38496,37,564.816,573.615,574.48,28.418,256.415,484.412,228.019,456.017,684.014,not5NN,NN_3
1,pro,ste,2,132017,pro_ste_run2_132017,NP,5,3,click,2800,1,1112,1,1,616510,625309,626421,38496,38,578.014,586.813,587.925,28.418,256.415,484.412,228.019,456.017,684.014,LL5NP,NP_5
1,pro,ste,2,132017,pro_ste_run2_132017,NN,3,2,cows,1600,1,1130,2,2,629708,638507,639637,38496,39,591.212,600.011,601.141,28.418,256.415,484.412,228.019,456.017,684.014,not5NN,NN_3
1,pro,ste,2,132017,pro_ste_run2_132017,RN,5,1,need,4000,1,1504,2,2,641706,650505,652009,38496,40,603.21,612.009,613.513,28.418,256.415,484.412,228.019,456.017,684.014,LL5RN,RN_5
1,pro,ste,2,132017,pro_ste_run2_132017,NP,5,3,void,4000,1,1029,1,1,656104,664902,665931,38496,41,617.608,626.406,627.435,28.418,256.415,484.412,228.019,456.017,684.014,LL5NP,NP_5
1,pro,ste,2,132017,pro_ste_run2_132017,NP,2,3,talent,1600,1,1503,1,1,670501,679300,680803,38496,42,632.005,640.804,642.307,28.418,256.415,484.412,228.019,456.017,684.014,not5NP,NP_2
1,pro,ste,2,132017,pro_ste_run2_132017,NP,4,1,clown,2800,1,872,1,1,682500,691315,692187,38496,43,644.004,652.819,653.691,28.418,256.415,484.412,228.019,456.017,684.014,not5NP,NP_4
1,pro,ste,2,132017,pro_ste_run2_132017,NN,5,2,signal,2800,0,0,,2,695714,704513,0,38496,44,657.218,666.017,-38.496,28.418,256.415,484.412,228.019,456.017,684.014,LL5NN,NN_5
1,pro,ste,2,132017,pro_ste_run2_132017,NN,4,1,grip,4000,1,898,2,2,708912,717711,718609,38496,45,670.416,679.215,680.113,28.418,256.415,484.412,228.019,456.017,684.014,not5NN,NN_4
1,rea,ste,1,132017,rea_ste_run1_132017,NP,8,2,brow,2800,1,1455,1,1,112378,121177,122632,81550,1,30.828,39.627,41.082,28.429,256.426,484.423,228.03,456.028,684.025,not5NP,NP_8
1,rea,ste,1,132017,rea_ste_run1_132017,RN,5,2,jets,1600,1,781,2,2,125576,134375,135156,81550,2,44.026,52.825,53.606,28.429,256.426,484.423,228.03,456.028,684.025,LL5RN,RN_5
1,rea,ste,1,132017,rea_ste_run1_132017,NP,5,3,touch,2800,1,1595,1,1,137574,146373,147968,81550,3,56.024,64.823,66.418,28.429,256.426,484.423,228.03,456.028,684.025,LL5NP,NP_5
1,rea,ste,1,132017,rea_ste_run1_132017,NP,5,3,pound,1600,1,825,1,1,150772,159571,160396,81550,4,69.222,78.021,78.846,28.429,256.426,484.423,228.03,456.028,684.025,LL5NP,NP_5
1,rea,ste,1,132017,rea_ste_run1_132017,RN,7,1,rivals,4000,1,1182,2,2,162770,171569,172751,81550,5,81.22,90.019,91.201,28.429,256.426,484.423,228.03,456.028,684.025,not5RN,RN_7
1,rea,ste,1,132017,rea_ste_run1_132017,NP,6,1,name,2800,1,1967,1,1,177168,185967,187934,81550,6,95.618,104.417,106.384,28.429,256.426,484.423,228.03,456.028,684.025,not5NP,NP_6
1,rea,ste,1,132017,rea_ste_run1_132017,NP,7,2,world,1600,1,1445,1,1,190366,199165,200610,81550,7,108.816,117.615,119.06,28.429,256.426,484.423,228.03,456.028,684.025,not5NP,NP_7
1,rea,ste,1,132017,rea_ste_run1_132017,RN,8,2,marker,4000,1,1129,2,2,202364,211163,212292,81550,8,120.814,129.613,130.742,28.429,256.426,484.423,228.03,456.028,684.025,not5RN,RN_8
1,rea,ste,1,132017,rea_ste_run1_132017,NP,5,3,wife,2800,1,1356,1,1,216778,225577,226933,81550,9,135.228,144.027,145.383,28.429,256.426,484.423,228.03,456.028,684.025,LL5NP,NP_5
1,rea,ste,1,132017,rea_ste_run1_132017,RN,5,2,paper,2800,0,893,1,2,229976,238775,239668,81550,10,148.426,157.225,158.118,28.429,256.426,484.423,228.03,456.028,684.025,LL5RN,RN_5
1,rea,ste,1,132017,rea_ste_run1_132017,NN,5,1,chin,4000,1,758,2,2,243174,251973,252731,81550,11,161.624,170.423,171.181,28.429,256.426,484.423,228.03,456.028,684.025,LL5NN,NN_5
1,rea,ste,1,132017,rea_ste_run1_132017,NP,7,2,grill,4000,0,1799,2,1,257572,266371,268170,81550,12,176.022,184.821,186.62,28.429,256.426,484.423,228.03,456.028,684.025,not5NP,NP_7
1,rea,ste,1,132017,rea_ste_run1_132017,RN,8,2,rhyme,1600,1,725,2,2,271970,280768,281493,81550,13,190.42,199.218,199.943,28.429,256.426,484.423,228.03,456.028,684.025,not5RN,RN_8
1,rea,ste,1,132017,rea_ste_run1_132017,NP,8,2,goods,1600,1,1434,1,1,283968,292766,294200,81550,14,202.418,211.216,212.65,28.429,256.426,484.423,228.03,456.028,684.025,not5NP,NP_8
1,rea,ste,1,132017,rea_ste_run1_132017,RN,6,1,reign,4000,1,986,2,2,295966,304764,305750,81550,15,214.416,223.214,224.2,28.429,256.426,484.423,228.03,456.028,684.025,not5RN,RN_6
1,rea,ste,1,132017,rea_ste_run1_132017,NP,5,3,harbor,4000,1,871,1,1,340376,349174,350045,81550,16,258.826,267.624,268.495,28.429,256.426,484.423,228.03,456.028,684.025,LL5NP,NP_5
1,rea,ste,1,132017,rea_ste_run1_132017,RN,7,1,boat,2800,0,1243,1,2,354773,363572,364815,81550,17,273.223,282.022,283.265,28.429,256.426,484.423,228.03,456.028,684.025,not5RN,RN_7
1,rea,ste,1,132017,rea_ste_run1_132017,RN,8,2,hour,4000,0,1029,1,2,367971,376770,377799,81550,18,286.421,295.22,296.249,28.429,256.426,484.423,228.03,456.028,684.025,not5RN,RN_8
1,rea,ste,1,132017,rea_ste_run1_132017,NP,8,3,tongue,4000,1,764,1,1,382369,391168,391932,81550,19,300.819,309.618,310.382,28.429,256.426,484.423,228.03,456.028,684.025,not5NP,NP_8
1,rea,ste,1,132017,rea_ste_run1_132017,RN,6,1,beam,2800,0,1092,1,2,396767,405565,406657,81550,20,315.217,324.015,325.107,28.429,256.426,484.423,228.03,456.028,684.025,not5RN,RN_6
1,rea,ste,1,132017,rea_ste_run1_132017,NN,5,1,ruler,1600,1,1042,2,2,409965,418763,419805,81550,21,328.415,337.213,338.255,28.429,256.426,484.423,228.03,456.028,684.025,LL5NN,NN_5
1,rea,ste,1,132017,rea_ste_run1_132017,NP,5,3,dryer,2800,1,662,1,1,421963,430778,431440,81550,22,340.413,349.228,349.89,28.429,256.426,484.423,228.03,456.028,684.025,LL5NP,NP_5
1,rea,ste,1,132017,rea_ste_run1_132017,RN,8,2,jazz,4000,0,977,1,2,435177,443976,444953,81550,23,353.627,362.426,363.403,28.429,256.426,484.423,228.03,456.028,684.025,not5RN,RN_8
1,rea,ste,1,132017,rea_ste_run1_132017,RN,5,2,blaze,1600,1,1047,2,2,449575,458374,459421,81550,24,368.025,376.824,377.871,28.429,256.426,484.423,228.03,456.028,684.025,LL5RN,RN_5
1,rea,ste,1,132017,rea_ste_run1_132017,NP,8,3,visit,4000,1,1185,1,1,461573,470372,471557,81550,25,380.023,388.822,390.007,28.429,256.426,484.423,228.03,456.028,684.025,not5NP,NP_8
1,rea,ste,1,132017,rea_ste_run1_132017,RN,5,2,ideals,1600,1,1302,2,2,475971,484769,486071,81550,26,394.421,403.219,404.521,28.429,256.426,484.423,228.03,456.028,684.025,LL5RN,RN_5
1,rea,ste,1,132017,rea_ste_run1_132017,NP,5,3,plate,1600,1,1189,1,1,487969,496767,497956,81550,27,406.419,415.217,416.406,28.429,256.426,484.423,228.03,456.028,684.025,LL5NP,NP_5
1,rea,ste,1,132017,rea_ste_run1_132017,NP,7,2,spark,2800,1,731,1,1,499967,508766,509497,81550,28,418.417,427.216,427.947,28.429,256.426,484.423,228.03,456.028,684.025,not5NP,NP_7
1,rea,ste,1,132017,rea_ste_run1_132017,NP,8,3,males,2800,1,592,1,1,513165,521963,522555,81550,29,431.615,440.413,441.005,28.429,256.426,484.423,228.03,456.028,684.025,not5NP,NP_8
1,rea,ste,1,132017,rea_ste_run1_132017,NP,7,2,setup,1600,1,750,1,1,526363,535178,535928,81550,30,444.813,453.628,454.378,28.429,256.426,484.423,228.03,456.028,684.025,not5NP,NP_7
1,rea,ste,1,132017,rea_ste_run1_132017,NP,5,3,answer,2800,1,645,1,1,568373,577171,577816,81550,31,486.823,495.621,496.266,28.429,256.426,484.423,228.03,456.028,684.025,LL5NP,NP_5
1,rea,ste,1,132017,rea_ste_run1_132017,RN,5,2,hawk,2800,1,1918,2,2,581571,590369,592287,81550,32,500.021,508.819,510.737,28.429,256.426,484.423,228.03,456.028,684.025,LL5RN,RN_5
1,rea,ste,1,132017,rea_ste_run1_132017,NN,8,1,train,4000,1,872,2,2,594769,603567,604439,81550,33,513.219,522.017,522.889,28.429,256.426,484.423,228.03,456.028,684.025,not5NN,NN_8
1,rea,ste,1,132017,rea_ste_run1_132017,RN,8,2,poppy,1600,0,667,1,2,609166,617965,618632,81550,34,527.616,536.415,537.082,28.429,256.426,484.423,228.03,456.028,684.025,not5RN,RN_8
1,rea,ste,1,132017,rea_ste_run1_132017,RN,7,2,wave,1600,1,987,2,2,621164,629963,630950,81550,35,539.614,548.413,549.4,28.429,256.426,484.423,228.03,456.028,684.025,not5RN,RN_7
1,rea,ste,1,132017,rea_ste_run1_132017,RN,8,2,days,4000,1,1299,2,2,633163,641978,643277,81550,36,551.613,560.428,561.727,28.429,256.426,484.423,228.03,456.028,684.025,not5RN,RN_8
1,rea,ste,1,132017,rea_ste_run1_132017,RN,7,2,need,1600,1,895,2,2,647577,656376,657271,81550,37,566.027,574.826,575.721,28.429,256.426,484.423,228.03,456.028,684.025,not5RN,RN_7
1,rea,ste,1,132017,rea_ste_run1_132017,NP,5,3,hose,2800,0,797,2,1,659575,668374,669171,81550,38,578.025,586.824,587.621,28.429,256.426,484.423,228.03,456.028,684.025,LL5NP,NP_5
1,rea,ste,1,132017,rea_ste_run1_132017,RN,5,2,drip,2800,1,1029,2,2,672773,681572,682601,81550,39,591.223,600.022,601.051,28.429,256.426,484.423,228.03,456.028,684.025,LL5RN,RN_5
1,rea,ste,1,132017,rea_ste_run1_132017,NN,5,1,finger,4000,0,1204,1,2,685971,694769,695973,81550,40,604.421,613.219,614.423,28.429,256.426,484.423,228.03,456.028,684.025,LL5NN,NN_5
1,rea,ste,1,132017,rea_ste_run1_132017,NP,8,2,charge,2800,1,837,1,1,700369,709167,710004,81550,41,618.819,627.617,628.454,28.429,256.426,484.423,228.03,456.028,684.025,not5NP,NP_8
1,rea,ste,1,132017,rea_ste_run1_132017,NP,7,1,drum,1600,1,960,1,1,713567,722365,723325,81550,42,632.017,640.815,641.775,28.429,256.426,484.423,228.03,456.028,684.025,not5NP,NP_7
1,rea,ste,1,132017,rea_ste_run1_132017,NP,5,3,spell,4000,1,880,1,1,725565,734363,735243,81550,43,644.015,652.813,653.693,28.429,256.426,484.423,228.03,456.028,684.025,LL5NP,NP_5
1,rea,ste,1,132017,rea_ste_run1_132017,NP,6,1,people,1600,1,832,1,1,739979,748778,749610,81550,44,658.429,667.228,668.06,28.429,256.426,484.423,228.03,456.028,684.025,not5NP,NP_6
1,rea,ste,1,132017,rea_ste_run1_132017,NP,8,2,rattle,4000,1,569,1,1,751977,760776,761345,81550,45,670.427,679.226,679.795,28.429,256.426,484.423,228.03,456.028,684.025,not5NP,NP_8
1,rea,ste,2,132017,rea_ste_run2_132017,NN,5,1,food,2800,1,734,2,2,77570,86369,87103,46754,1,30.816,39.615,40.349,28.417,256.414,484.411,228.018,456.016,684.03,LL5NN,NN_5
1,rea,ste,2,132017,rea_ste_run2_132017,NP,8,2,rider,4000,1,777,1,1,90768,99567,100344,46754,2,44.014,52.813,53.59,28.417,256.414,484.411,228.018,456.016,684.03,not5NP,NP_8
1,rea,ste,2,132017,rea_ste_run2_132017,RN,8,2,slug,1600,1,1201,2,2,105166,113964,115165,46754,3,58.412,67.21,68.411,28.417,256.414,484.411,228.018,456.016,684.03,not5RN,RN_8
1,rea,ste,2,132017,rea_ste_run2_132017,RN,8,2,witch,1600,1,944,2,2,117164,125963,126907,46754,4,70.41,79.209,80.153,28.417,256.414,484.411,228.018,456.016,684.03,not5RN,RN_8
1,rea,ste,2,132017,rea_ste_run2_132017,RN,5,2,stain,4000,0,1414,1,2,129162,137961,139375,46754,5,82.408,91.207,92.621,28.417,256.414,484.411,228.018,456.016,684.03,LL5RN,RN_5
1,rea,ste,2,132017,rea_ste_run2_132017,NN,7,1,herd,4000,1,952,2,2,143560,152375,153327,46754,6,96.806,105.621,106.573,28.417,256.414,484.411,228.018,456.016,684.03,not5NN,NN_7
1,rea,ste,2,132017,rea_ste_run2_132017,NP,7,1,flag,2800,1,1036,1,1,157974,166773,167809,46754,7,111.22,120.019,121.055,28.417,256.414,484.411,228.018,456.016,684.03,not5NP,NP_7
1,rea,ste,2,132017,rea_ste_run2_132017,RN,6,1,maid,1600,0,1702,1,2,171172,179971,181673,46754,8,124.418,133.217,134.919,28.417,256.414,484.411,228.018,456.016,684.03,not5RN,RN_6
1,rea,ste,2,132017,rea_ste_run2_132017,NP,6,1,wall,4000,0,980,2,1,183170,191969,192949,46754,9,136.416,145.215,146.195,28.417,256.414,484.411,228.018,456.016,684.03,not5NP,NP_6
1,rea,ste,2,132017,rea_ste_run2_132017,NP,5,3,zipper,2800,1,957,1,1,197568,206366,207323,46754,10,150.814,159.612,160.569,28.417,256.414,484.411,228.018,456.016,684.03,LL5NP,NP_5
1,rea,ste,2,132017,rea_ste_run2_132017,RN,5,2,pair,1600,1,1157,2,2,210766,219564,220721,46754,11,164.012,172.81,173.967,28.417,256.414,484.411,228.018,456.016,684.03,LL5RN,RN_5
1,rea,ste,2,132017,rea_ste_run2_132017,NP,8,2,tree,2800,1,966,1,1,222764,231562,232528,46754,12,176.01,184.808,185.774,28.417,256.414,484.411,228.018,456.016,684.03,not5NP,NP_8
1,rea,ste,2,132017,rea_ste_run2_132017,NP,5,3,photo,2800,1,778,1,1,235962,244760,245538,46754,13,189.208,198.006,198.784,28.417,256.414,484.411,228.018,456.016,684.03,LL5NP,NP_5
1,rea,ste,2,132017,rea_ste_run2_132017,NP,5,3,girl,4000,1,906,1,1,249160,257975,258881,46754,14,202.406,211.221,212.127,28.417,256.414,484.411,228.018,456.016,684.03,LL5NP,NP_5
1,rea,ste,2,132017,rea_ste_run2_132017,RN,7,1,quart,1600,1,1265,2,2,263574,272373,273638,46754,15,216.82,225.619,226.884,28.417,256.414,484.411,228.018,456.016,684.03,not5RN,RN_7
1,rea,ste,2,132017,rea_ste_run2_132017,NN,8,1,rest,4000,1,1299,2,2,305567,314366,315665,46754,16,258.813,267.612,268.911,28.417,256.414,484.411,228.018,456.016,684.03,not5NN,NN_8
1,rea,ste,2,132017,rea_ste_run2_132017,NP,7,2,singer,2800,1,803,1,1,319965,328764,329567,46754,17,273.211,282.01,282.813,28.417,256.414,484.411,228.018,456.016,684.03,not5NP,NP_7
1,rea,ste,2,132017,rea_ste_run2_132017,RN,8,2,prince,2800,0,801,1,2,333163,341962,342763,46754,18,286.409,295.208,296.009,28.417,256.414,484.411,228.018,456.016,684.03,not5RN,RN_8
1,rea,ste,2,132017,rea_ste_run2_132017,NP,5,3,pals,4000,1,869,1,1,346361,355176,356045,46754,19,299.607,308.422,309.291,28.417,256.414,484.411,228.018,456.016,684.03,LL5NP,NP_5
1,rea,ste,2,132017,rea_ste_run2_132017,NP,5,3,cotton,2800,1,1004,1,1,360775,369574,370578,46754,20,314.021,322.82,323.824,28.417,256.414,484.411,228.018,456.016,684.03,LL5NP,NP_5
1,rea,ste,2,132017,rea_ste_run2_132017,NP,5,3,chest,1600,1,1347,1,1,373973,382772,384119,46754,21,327.219,336.018,337.365,28.417,256.414,484.411,228.018,456.016,684.03,LL5NP,NP_5
1,rea,ste,2,132017,rea_ste_run2_132017,NP,8,2,dawn,1600,1,906,1,1,385971,394770,395676,46754,22,339.217,348.016,348.922,28.417,256.414,484.411,228.018,456.016,684.03,not5NP,NP_8
1,rea,ste,2,132017,rea_ste_run2_132017,RN,5,2,praise,4000,1,991,2,2,397969,406768,407759,46754,23,351.215,360.014,361.005,28.417,256.414,484.411,228.018,456.016,684.03,LL5RN,RN_5
1,rea,ste,2,132017,rea_ste_run2_132017,RN,5,2,walker,2800,0,838,1,2,412367,421166,422004,46754,24,365.613,374.412,375.25,28.417,256.414,484.411,228.018,456.016,684.03,LL5RN,RN_5
1,rea,ste,2,132017,rea_ste_run2_132017,NN,5,1,grass,2800,1,1082,2,2,425565,434364,435446,46754,25,378.811,387.61,388.692,28.417,256.414,484.411,228.018,456.016,684.03,LL5NN,NN_5
1,rea,ste,2,132017,rea_ste_run2_132017,NP,8,2,charm,4000,1,1307,1,1,438763,447562,448869,46754,26,392.009,400.808,402.115,28.417,256.414,484.411,228.018,456.016,684.03,not5NP,NP_8
1,rea,ste,2,132017,rea_ste_run2_132017,RN,8,2,barber,4000,0,1333,1,2,453161,461976,463309,46754,27,406.407,415.222,416.555,28.417,256.414,484.411,228.018,456.016,684.03,not5RN,RN_8
1,rea,ste,2,132017,rea_ste_run2_132017,RN,6,1,motor,1600,1,1495,2,2,467575,476374,477869,46754,28,420.821,429.62,431.115,28.417,256.414,484.411,228.018,456.016,684.03,not5RN,RN_6
1,rea,ste,2,132017,rea_ste_run2_132017,RN,7,1,east,1600,1,924,2,2,479573,488372,489296,46754,29,432.819,441.618,442.542,28.417,256.414,484.411,228.018,456.016,684.03,not5RN,RN_7
1,rea,ste,2,132017,rea_ste_run2_132017,NP,7,2,oats,1600,1,1136,1,1,491571,500370,501506,46754,30,444.817,453.616,454.752,28.417,256.414,484.411,228.018,456.016,684.03,not5NP,NP_7
1,rea,ste,2,132017,rea_ste_run2_132017,NP,8,3,slip,1600,1,708,1,1,533565,542363,543071,46754,31,486.811,495.609,496.317,28.417,256.414,484.411,228.018,456.016,684.03,not5NP,NP_8
1,rea,ste,2,132017,rea_ste_run2_132017,RN,7,2,note,2800,1,1097,2,2,545563,554361,555458,46754,32,498.809,507.607,508.704,28.417,256.414,484.411,228.018,456.016,684.03,not5RN,RN_7
1,rea,ste,2,132017,rea_ste_run2_132017,RN,5,2,tile,4000,1,1482,2,2,558761,567576,569058,46754,33,512.007,520.822,522.304,28.417,256.414,484.411,228.018,456.016,684.03,LL5RN,RN_5
1,rea,ste,2,132017,rea_ste_run2_132017,NP,5,3,winner,2800,1,653,1,1,573175,581974,582627,46754,34,526.421,535.22,535.873,28.417,256.414,484.411,228.018,456.016,684.03,LL5NP,NP_5
1,rea,ste,2,132017,rea_ste_run2_132017,NN,5,1,flick,2800,1,746,2,2,586373,595172,595918,46754,35,539.619,548.418,549.164,28.417,256.414,484.411,228.018,456.016,684.03,LL5NN,NN_5
1,rea,ste,2,132017,rea_ste_run2_132017,NP,8,3,glove,4000,0,0,,1,599571,608370,0,46754,36,552.817,561.616,-46.754,28.417,256.414,484.411,228.018,456.016,684.03,not5NP,NP_8
1,rea,ste,2,132017,rea_ste_run2_132017,RN,5,2,list,1600,0,1206,1,2,613969,622767,623973,46754,37,567.215,576.013,577.219,28.417,256.414,484.411,228.018,456.016,684.03,LL5RN,RN_5
1,rea,ste,2,132017,rea_ste_run2_132017,NP,5,3,beach,1600,1,850,1,1,625967,634765,635615,46754,38,579.213,588.011,588.861,28.417,256.414,484.411,228.018,456.016,684.03,LL5NP,NP_5
1,rea,ste,2,132017,rea_ste_run2_132017,NP,5,3,bugs,1600,1,694,1,1,637965,646763,647457,46754,39,591.211,600.009,600.703,28.417,256.414,484.411,228.018,456.016,684.03,LL5NP,NP_5
1,rea,ste,2,132017,rea_ste_run2_132017,NP,7,1,suit,4000,1,831,1,1,649963,658762,659593,46754,40,603.209,612.008,612.839,28.417,256.414,484.411,228.018,456.016,684.03,not5NP,NP_7
1,rea,ste,2,132017,rea_ste_run2_132017,RN,8,1,dock,2800,1,798,2,2,664361,673176,673974,46754,41,617.607,626.422,627.22,28.417,256.414,484.411,228.018,456.016,684.03,not5RN,RN_8
1,rea,ste,2,132017,rea_ste_run2_132017,RN,6,1,folder,4000,1,1090,2,2,677575,686374,687464,46754,42,630.821,639.62,640.71,28.417,256.414,484.411,228.018,456.016,684.03,not5RN,RN_6
1,rea,ste,2,132017,rea_ste_run2_132017,NP,8,3,owner,2800,1,899,1,1,691973,700772,701671,46754,43,645.219,654.018,654.917,28.417,256.414,484.411,228.018,456.016,684.03,not5NP,NP_8
1,rea,ste,2,132017,rea_ste_run2_132017,NP,6,1,washer,4000,1,764,1,1,705171,713970,714734,46754,44,658.417,667.216,667.98,28.417,256.414,484.411,228.018,456.016,684.03,not5NP,NP_6
1,rea,ste,2,132017,rea_ste_run2_132017,RN,7,2,void,1600,0,805,1,2,719569,728367,729172,46754,45,672.815,681.613,682.418,28.417,256.414,484.411,228.018,456.016,684.03,not5RN,RN_7
1,bas,ste,1,155938,bas_ste_run1_155938,NP,5,3,syrup,1600,0,1020,2,1,162666,171464,172484,131857,1,30.809,39.607,40.627,28.409,256.423,484.42,228.027,456.025,684.022,LL5NP,NP_5
1,bas,ste,1,155938,bas_ste_run1_155938,NN,8,2,scale,2800,1,1207,2,2,174664,183479,184686,131857,2,42.807,51.622,52.829,28.409,256.423,484.42,228.027,456.025,684.022,not5NN,NN_8
1,bas,ste,1,155938,bas_ste_run1_155938,NN,8,2,doll,1600,1,1348,2,2,187878,196677,198025,131857,3,56.021,64.82,66.168,28.409,256.423,484.42,228.027,456.025,684.022,not5NN,NN_8
1,bas,ste,1,155938,bas_ste_run1_155938,NP,5,3,threat,4000,0,1398,2,1,199876,208675,210073,131857,4,68.019,76.818,78.216,28.409,256.423,484.42,228.027,456.025,684.022,LL5NP,NP_5
1,bas,ste,1,155938,bas_ste_run1_155938,NN,6,1,parrot,4000,0,0,,2,214274,223073,0,131857,5,82.417,91.216,-131.857,28.409,256.423,484.42,228.027,456.025,684.022,not5NN,NN_6
1,bas,ste,1,155938,bas_ste_run1_155938,NP,8,2,chance,1600,1,1211,1,1,228672,237470,238681,131857,6,96.815,105.613,106.824,28.409,256.423,484.42,228.027,456.025,684.022,not5NP,NP_8
1,bas,ste,1,155938,bas_ste_run1_155938,NN,5,2,blur,2800,1,1229,2,2,240670,249468,250697,131857,7,108.813,117.611,118.84,28.409,256.423,484.42,228.027,456.025,684.022,LL5NN,NN_5
1,bas,ste,1,155938,bas_ste_run1_155938,NP,7,2,rash,4000,0,0,,1,253868,262666,0,131857,8,122.011,130.809,-131.857,28.409,256.423,484.42,228.027,456.025,684.022,not5NP,NP_7
1,bas,ste,1,155938,bas_ste_run1_155938,NN,5,2,tube,2800,1,1317,2,2,268266,277064,278381,131857,9,136.409,145.207,146.524,28.409,256.423,484.42,228.027,456.025,684.022,LL5NN,NN_5
1,bas,ste,1,155938,bas_ste_run1_155938,NP,5,3,share,4000,1,1440,1,1,281480,290279,291719,131857,10,149.623,158.422,159.862,28.409,256.423,484.42,228.027,456.025,684.022,LL5NP,NP_5
1,bas,ste,1,155938,bas_ste_run1_155938,NP,7,2,wealth,4000,0,1934,2,1,295878,304676,306610,131857,11,164.021,172.819,174.753,28.409,256.423,484.42,228.027,456.025,684.022,not5NP,NP_7
1,bas,ste,1,155938,bas_ste_run1_155938,NP,8,2,bush,2800,1,1218,1,1,310276,319074,320292,131857,12,178.419,187.217,188.435,28.409,256.423,484.42,228.027,456.025,684.022,not5NP,NP_8
1,bas,ste,1,155938,bas_ste_run1_155938,NN,7,1,straw,2800,1,1174,2,2,323473,332272,333446,131857,13,191.616,200.415,201.589,28.409,256.423,484.42,228.027,456.025,684.022,not5NN,NN_7
1,bas,ste,1,155938,bas_ste_run1_155938,NP,6,1,frost,1600,1,1051,1,1,336671,345470,346521,131857,14,204.814,213.613,214.664,28.409,256.423,484.42,228.027,456.025,684.022,not5NP,NP_6
1,bas,ste,1,155938,bas_ste_run1_155938,RN,5,1,quart,1600,1,925,2,2,348669,357468,358393,131857,15,216.812,225.611,226.536,28.409,256.423,484.42,228.027,456.025,684.022,LL5RN,RN_5
1,bas,ste,1,155938,bas_ste_run1_155938,NN,6,1,taxi,2800,1,988,2,2,390679,399478,400466,131857,16,258.822,267.621,268.609,28.409,256.423,484.42,228.027,456.025,684.022,not5NN,NN_6
1,bas,ste,1,155938,bas_ste_run1_155938,NN,8,2,liar,1600,1,1114,2,2,403877,412676,413790,131857,17,272.02,280.819,281.933,28.409,256.423,484.42,228.027,456.025,684.022,not5NN,NN_8
1,bas,ste,1,155938,bas_ste_run1_155938,NP,7,2,need,4000,0,0,,1,415876,424674,0,131857,18,284.019,292.817,-131.857,28.409,256.423,484.42,228.027,456.025,684.022,not5NP,NP_7
1,bas,ste,1,155938,bas_ste_run1_155938,NP,7,2,bean,1600,1,1445,1,1,430273,439072,440517,131857,19,298.416,307.215,308.66,28.409,256.423,484.42,228.027,456.025,684.022,not5NP,NP_7
