wave,session,task,run,subj,name,stimuli,number,letter,trial.type,cue,number.resp,letter.resp,award,switch,cue.color,target.color,target.color.orig,incentive,iti,acc,rt,resp,cresp,time.cue.onset.abs,time.target.onset.abs,time.rt.abs,time.scan.start,trial.num,time.cue.onset,time.target.onset,time.rt,time.block1.on,time.block2.on,time.block3.on,time.block1.off,time.block2.off,time.block3.off,trialtype
1,bas,cue,1,130518,bas_cue_run1_130518,B1,o,c,Con,l,2,2,,,red,black,black,NoInc,2000,0,0,,2,133860,138359,0,102752,1,31.108,35.607,-102.752,28.409,274.402,520.413,246.024,492.018,738.011,ConNoInc
1,bas,cue,1,130518,bas_cue_run1_130518,1B,o,c,Con,l,2,2,,stay,red,black,black,NoInc,2000,1,704,2,2,144658,149158,149862,102752,2,41.906,46.406,47.11,28.409,274.402,520.413,246.024,492.018,738.011,ConNoInc
1,bas,cue,1,130518,bas_cue_run1_130518,H5,o,c,Con,l,2,2,,stay,red,black,black,NoInc,2000,1,821,2,2,155457,159956,160777,102752,3,52.705,57.204,58.025,28.409,274.402,520.413,246.024,492.018,738.011,ConNoInc
1,bas,cue,1,130518,bas_cue_run1_130518,2A,e,v,Con,n,1,1,,switch,red,black,black,NoInc,4400,1,598,1,1,166255,170754,171352,102752,4,63.503,68.002,68.6,28.409,274.402,520.413,246.024,492.018,738.011,ConNoInc
1,bas,cue,1,130518,bas_cue_run1_130518,I6,e,v,Con,l,1,1,,switch,red,black,green,Inc,3200,1,1369,1,1,179453,183952,185321,102752,5,76.701,81.2,82.569,28.409,274.402,520.413,246.024,492.018,738.011,ConInc
1,bas,cue,1,130518,bas_cue_run1_130518,D4,e,c,InCon,l,1,2,,stay,red,black,green,Inc,3200,1,1041,2,2,191468,195967,197008,102752,6,88.716,93.215,94.256,28.409,274.402,520.413,246.024,492.018,738.011,InConInc
1,bas,cue,1,130518,bas_cue_run1_130518,1A,o,v,InCon,l,2,1,,stay,red,black,black,NoInc,3200,1,1430,1,1,203466,207965,209395,102752,7,100.714,105.213,106.643,28.409,274.402,520.413,246.024,492.018,738.011,InConNoInc
1,bas,cue,1,130518,bas_cue_run1_130518,4D,e,c,InCon,n,1,2,,switch,red,black,green,Inc,4400,1,1616,1,1,215464,219963,221579,102752,8,112.712,117.211,118.827,28.409,274.402,520.413,246.024,492.018,738.011,InConInc
1,bas,cue,1,130518,bas_cue_run1_130518,A2,e,v,Con,l,1,1,,switch,red,black,black,NoInc,4400,1,1099,1,1,228662,233161,234260,102752,9,125.91,130.409,131.508,28.409,274.402,520.413,246.024,492.018,738.011,ConNoInc
1,bas,cue,1,130518,bas_cue_run1_130518,D4,e,c,InCon,n,1,2,,switch,red,black,green,Inc,3200,1,1840,1,1,241859,246359,248199,102752,10,139.107,143.607,145.447,28.409,274.402,520.413,246.024,492.018,738.011,InConInc
1,bas,cue,1,130518,bas_cue_run1_130518,A2,e,v,Con,n,1,1,,stay,red,black,black,NoInc,2000,1,834,1,1,253858,258357,259191,102752,11,151.106,155.605,156.439,28.409,274.402,520.413,246.024,492.018,738.011,ConNoInc
1,bas,cue,1,130518,bas_cue_run1_130518,E3,o,v,InCon,l,2,1,,switch,red,black,green,Inc,3200,1,880,1,1,264656,269155,270035,102752,12,161.904,166.403,167.283,28.409,274.402,520.413,246.024,492.018,738.011,InConInc
1,bas,cue,1,130518,bas_cue_run1_130518,5H,o,c,Con,l,2,2,,stay,red,black,black,NoInc,2000,1,961,2,2,276654,281153,282114,102752,13,173.902,178.401,179.362,28.409,274.402,520.413,246.024,492.018,738.011,ConNoInc
1,bas,cue,1,130518,bas_cue_run1_130518,6I,e,v,Con,n,1,1,,switch,red,black,green,Inc,4400,1,988,1,1,287452,291968,292956,102752,14,184.7,189.216,190.204,28.409,274.402,520.413,246.024,492.018,738.011,ConInc
1,bas,cue,1,130518,bas_cue_run1_130518,1B,o,c,Con,n,2,2,,stay,red,black,black,NoInc,4400,1,1057,2,2,300667,305166,306223,102752,15,197.915,202.414,203.471,28.409,274.402,520.413,246.024,492.018,738.011,ConNoInc
1,bas,cue,1,130518,bas_cue_run1_130518,B2,e,c,InCon,n,1,2,,stay,red,black,black,NoInc,2000,1,932,1,1,313865,318364,319296,102752,16,211.113,215.612,216.544,28.409,274.402,520.413,246.024,492.018,738.011,InConNoInc
1,bas,cue,1,130518,bas_cue_run1_130518,B1,o,c,Con,n,2,2,,stay,red,black,black,NoInc,4400,1,783,2,2,324663,329162,329945,102752,17,221.911,226.41,227.193,28.409,274.402,520.413,246.024,492.018,738.011,ConNoInc
1,bas,cue,1,130518,bas_cue_run1_130518,I6,e,v,Con,n,1,1,,stay,red,black,black,NoInc,3200,1,1300,1,1,337861,342360,343660,102752,18,235.109,239.608,240.908,28.409,274.402,520.413,246.024,492.018,738.011,ConNoInc
1,bas,cue,1,130518,bas_cue_run1_130518,2A,e,v,Con,l,1,1,,,red,black,black,NoInc,3200,1,1439,1,1,379854,384353,385792,102752,19,277.102,281.601,283.04,28.409,274.402,520.413,246.024,492.018,738.011,ConNoInc
1,bas,cue,1,130518,bas_cue_run1_130518,3E,o,v,InCon,l,2,1,,stay,red,black,green,Inc,4400,1,891,1,1,391852,396368,397259,102752,20,289.1,293.616,294.507,28.409,274.402,520.413,246.024,492.018,738.011,InConInc
1,bas,cue,1,130518,bas_cue_run1_130518,5H,o,c,Con,l,2,2,,stay,red,black,black,NoInc,3200,1,673,2,2,405067,409566,410239,102752,21,302.315,306.814,307.487,28.409,274.402,520.413,246.024,492.018,738.011,ConNoInc
1,bas,cue,1,130518,bas_cue_run1_130518,2A,e,v,Con,n,1,1,,switch,red,black,black,NoInc,2000,1,951,1,1,417065,421564,422515,102752,22,314.313,318.812,319.763,28.409,274.402,520.413,246.024,492.018,738.011,ConNoInc
1,bas,cue,1,130518,bas_cue_run1_130518,E3,o,v,InCon,n,2,1,,stay,red,black,green,Inc,4400,1,1392,2,2,427863,432362,433754,102752,23,325.111,329.61,331.002,28.409,274.402,520.413,246.024,492.018,738.011,InConInc
1,bas,cue,1,130518,bas_cue_run1_130518,1B,o,c,Con,n,2,2,,stay,red,black,black,NoInc,3200,1,1757,2,2,441061,445560,447317,102752,24,338.309,342.808,344.565,28.409,274.402,520.413,246.024,492.018,738.011,ConNoInc
1,bas,cue,1,130518,bas_cue_run1_130518,2A,e,v,Con,l,1,1,,switch,red,black,black,NoInc,2000,1,1268,1,1,453059,457558,458826,102752,25,350.307,354.806,356.074,28.409,274.402,520.413,246.024,492.018,738.011,ConNoInc
1,bas,cue,1,130518,bas_cue_run1_130518,5H,o,c,Con,n,2,2,,switch,red,black,green,Inc,4400,1,596,2,2,463857,468356,468952,102752,26,361.105,365.604,366.2,28.409,274.402,520.413,246.024,492.018,738.011,ConInc
1,bas,cue,1,130518,bas_cue_run1_130518,B1,o,c,Con,l,2,2,,switch,red,black,black,NoInc,2000,1,951,2,2,477055,481554,482505,102752,27,374.303,378.802,379.753,28.409,274.402,520.413,246.024,492.018,738.011,ConNoInc
1,bas,cue,1,130518,bas_cue_run1_130518,A2,e,v,Con,n,1,1,,switch,red,black,black,NoInc,2000,1,1219,1,1,487853,492353,493572,102752,28,385.101,389.601,390.82,28.409,274.402,520.413,246.024,492.018,738.011,ConNoInc
1,bas,cue,1,130518,bas_cue_run1_130518,A1,o,v,InCon,n,2,1,,stay,red,black,black,NoInc,4400,1,1627,2,2,498652,503168,504795,102752,29,395.9,400.416,402.043,28.409,274.402,520.413,246.024,492.018,738.011,InConNoInc
1,bas,cue,1,130518,bas_cue_run1_130518,D4,e,c,InCon,l,1,2,,switch,red,black,green,Inc,2000,1,1603,2,2,511866,516365,517968,102752,30,409.114,413.613,415.216,28.409,274.402,520.413,246.024,492.018,738.011,InConInc
1,bas,cue,1,130518,bas_cue_run1_130518,E3,o,v,InCon,n,2,1,,switch,red,black,green,Inc,3200,1,1496,2,2,522664,527164,528660,102752,31,419.912,424.412,425.908,28.409,274.402,520.413,246.024,492.018,738.011,InConInc
1,bas,cue,1,130518,bas_cue_run1_130518,3E,o,v,InCon,n,2,1,,stay,red,black,green,Inc,4400,1,1548,2,2,534662,539162,540710,102752,32,431.91,436.41,437.958,28.409,274.402,520.413,246.024,492.018,738.011,InConInc
1,bas,cue,1,130518,bas_cue_run1_130518,6I,e,v,Con,n,1,1,,stay,red,black,black,NoInc,4400,1,1449,1,1,547860,552360,553809,102752,33,445.108,449.608,451.057,28.409,274.402,520.413,246.024,492.018,738.011,ConNoInc
1,bas,cue,1,130518,bas_cue_run1_130518,1B,o,c,Con,l,2,2,,switch,red,black,black,NoInc,3200,1,1548,2,2,561058,565558,567106,102752,34,458.306,462.806,464.354,28.409,274.402,520.413,246.024,492.018,738.011,ConNoInc
1,bas,cue,1,130518,bas_cue_run1_130518,I6,e,v,Con,l,1,1,,stay,red,black,black,NoInc,3200,1,1932,1,1,573056,577556,579488,102752,35,470.304,474.804,476.736,28.409,274.402,520.413,246.024,492.018,738.011,ConNoInc
1,bas,cue,1,130518,bas_cue_run1_130518,2B,e,c,InCon,l,1,2,,stay,red,black,black,NoInc,2000,1,1572,2,2,585054,589554,591126,102752,36,482.302,486.802,488.374,28.409,274.402,520.413,246.024,492.018,738.011,InConNoInc
1,bas,cue,1,130518,bas_cue_run1_130518,B1,o,c,Con,n,2,2,,,red,black,black,NoInc,2000,1,1480,2,2,625865,630364,631844,102752,37,523.113,527.612,529.092,28.409,274.402,520.413,246.024,492.018,738.011,ConNoInc
1,bas,cue,1,130518,bas_cue_run1_130518,H5,o,c,Con,n,2,2,,stay,red,black,black,NoInc,3200,1,968,2,2,636663,641162,642130,102752,38,533.911,538.41,539.378,28.409,274.402,520.413,246.024,492.018,738.011,ConNoInc
1,bas,cue,1,130518,bas_cue_run1_130518,B1,o,c,Con,l,2,2,,switch,red,black,black,NoInc,4400,1,1602,2,2,648661,653160,654762,102752,39,545.909,550.408,552.01,28.409,274.402,520.413,246.024,492.018,738.011,ConNoInc
1,bas,cue,1,130518,bas_cue_run1_130518,2A,e,v,Con,l,1,1,,stay,red,black,black,NoInc,4400,1,1059,1,1,661859,666358,667417,102752,40,559.107,563.606,564.665,28.409,274.402,520.413,246.024,492.018,738.011,ConNoInc
1,bas,cue,1,130518,bas_cue_run1_130518,3E,o,v,InCon,n,2,1,,switch,red,black,green,Inc,3200,0,1464,1,2,675057,679556,681020,102752,41,572.305,576.804,578.268,28.409,274.402,520.413,246.024,492.018,738.011,InConInc
1,bas,cue,1,130518,bas_cue_run1_130518,4D,e,c,InCon,l,1,2,,switch,red,black,green,Inc,2000,1,1265,2,2,687055,691554,692819,102752,42,584.303,588.802,590.067,28.409,274.402,520.413,246.024,492.018,738.011,InConInc
1,bas,cue,1,130518,bas_cue_run1_130518,1A,o,v,InCon,n,2,1,,switch,red,black,black,NoInc,4400,1,1174,2,2,697853,702352,703526,102752,43,595.101,599.6,600.774,28.409,274.402,520.413,246.024,492.018,738.011,InConNoInc
1,bas,cue,1,130518,bas_cue_run1_130518,H5,o,c,Con,l,2,2,,switch,red,black,green,Inc,3200,1,985,2,2,711068,715567,716552,102752,44,608.316,612.815,613.8,28.409,274.402,520.413,246.024,492.018,738.011,ConInc
1,bas,cue,1,130518,bas_cue_run1_130518,A2,e,v,Con,l,1,1,,stay,red,black,black,NoInc,2000,1,1821,1,1,723066,727565,729386,102752,45,620.314,624.813,626.634,28.409,274.402,520.413,246.024,492.018,738.011,ConNoInc
1,bas,cue,1,130518,bas_cue_run1_130518,E3,o,v,InCon,l,2,1,,stay,red,black,green,Inc,2000,1,1385,1,1,733864,738363,739748,102752,46,631.112,635.611,636.996,28.409,274.402,520.413,246.024,492.018,738.011,InConInc
1,bas,cue,1,130518,bas_cue_run1_130518,A2,e,v,Con,n,1,1,,switch,red,black,black,NoInc,2000,1,1280,1,1,744662,749161,750441,102752,47,641.91,646.409,647.689,28.409,274.402,520.413,246.024,492.018,738.011,ConNoInc
1,bas,cue,1,130518,bas_cue_run1_130518,1B,o,c,Con,n,2,2,,stay,red,black,black,NoInc,4400,1,849,2,2,755461,759960,760809,102752,48,652.709,657.208,658.057,28.409,274.402,520.413,246.024,492.018,738.011,ConNoInc
1,bas,cue,1,130518,bas_cue_run1_130518,1B,o,c,Con,l,2,2,,switch,red,black,black,NoInc,3200,1,1515,2,2,768658,773158,774673,102752,49,665.906,670.406,671.921,28.409,274.402,520.413,246.024,492.018,738.011,ConNoInc
1,bas,cue,1,130518,bas_cue_run1_130518,2A,e,v,Con,n,1,1,,switch,red,black,black,NoInc,3200,1,1955,1,1,780656,785156,787111,102752,50,677.904,682.404,684.359,28.409,274.402,520.413,246.024,492.018,738.011,ConNoInc
1,bas,cue,1,130518,bas_cue_run1_130518,4D,e,c,InCon,n,1,2,,stay,red,black,green,Inc,4400,1,1441,1,1,792654,797154,798595,102752,51,689.902,694.402,695.843,28.409,274.402,520.413,246.024,492.018,738.011,InConInc
1,bas,cue,1,130518,bas_cue_run1_130518,3E,o,v,InCon,l,2,1,,switch,red,black,green,Inc,4400,1,2593,1,1,805852,810368,812961,102752,52,703.1,707.616,710.209,28.409,274.402,520.413,246.024,492.018,738.011,InConInc
1,bas,cue,1,130518,bas_cue_run1_130518,6I,e,v,Con,l,1,1,,stay,red,black,black,NoInc,2000,1,1014,1,1,819067,823566,824580,102752,53,716.315,720.814,721.828,28.409,274.402,520.413,246.024,492.018,738.011,ConNoInc
1,bas,cue,1,130518,bas_cue_run1_130518,6I,e,v,Con,n,1,1,,switch,red,black,black,NoInc,3200,1,947,1,1,829865,834364,835311,102752,54,727.113,731.612,732.559,28.409,274.402,520.413,246.024,492.018,738.011,ConNoInc
1,bas,cue,2,130518,bas_cue_run2_130518,1B,o,c,Con,n,2,2,,,red,black,black,NoInc,3200,1,1058,2,2,79477,83977,85035,48360,1,31.117,35.617,36.675,28.418,274.412,520.406,246.016,492.027,738.021,ConNoInc
1,bas,cue,2,130518,bas_cue_run2_130518,A2,e,v,Con,n,1,1,,stay,red,black,black,NoInc,2000,1,1253,1,1,91475,95975,97228,48360,2,43.115,47.615,48.868,28.418,274.412,520.406,246.016,492.027,738.021,ConNoInc
1,bas,cue,2,130518,bas_cue_run2_130518,A2,e,v,Con,l,1,1,,switch,red,black,black,NoInc,3200,1,977,1,1,102274,106773,107750,48360,3,53.914,58.413,59.39,28.418,274.412,520.406,246.016,492.027,738.021,ConNoInc
1,bas,cue,2,130518,bas_cue_run2_130518,H5,o,c,Con,l,2,2,,stay,red,black,black,NoInc,3200,1,1047,2,2,114272,118771,119818,48360,4,65.912,70.411,71.458,28.418,274.412,520.406,246.016,492.027,738.021,ConNoInc
1,bas,cue,2,130518,bas_cue_run2_130518,1B,o,c,Con,l,2,2,,stay,red,black,black,NoInc,4400,1,810,2,2,126270,130769,131579,48360,5,77.91,82.409,83.219,28.418,274.412,520.406,246.016,492.027,738.021,ConNoInc
1,bas,cue,2,130518,bas_cue_run2_130518,6I,e,v,Con,l,1,1,,stay,red,black,green,Inc,4400,1,1101,1,1,139468,143967,145068,48360,6,91.108,95.607,96.708,28.418,274.412,520.406,246.016,492.027,738.021,ConInc
1,bas,cue,2,130518,bas_cue_run2_130518,3E,o,v,InCon,n,2,1,,switch,red,black,green,Inc,2000,1,1100,2,2,152666,157165,158265,48360,7,104.306,108.805,109.905,28.418,274.412,520.406,246.016,492.027,738.021,InConInc
1,bas,cue,2,130518,bas_cue_run2_130518,E3,o,v,InCon,l,2,1,,switch,red,black,green,Inc,4400,1,1977,1,1,163464,167980,169957,48360,8,115.104,119.62,121.597,28.418,274.412,520.406,246.016,492.027,738.021,InConInc
1,bas,cue,2,130518,bas_cue_run2_130518,4D,e,c,InCon,l,1,2,,stay,red,black,green,Inc,2000,1,2292,2,2,176678,181178,183470,48360,9,128.318,132.818,135.11,28.418,274.412,520.406,246.016,492.027,738.021,InConInc
1,bas,cue,2,130518,bas_cue_run2_130518,B1,o,c,Con,n,2,2,,switch,red,black,black,NoInc,2000,1,797,2,2,187477,191976,192773,48360,10,139.117,143.616,144.413,28.418,274.412,520.406,246.016,492.027,738.021,ConNoInc
1,bas,cue,2,130518,bas_cue_run2_130518,B2,e,c,InCon,l,1,2,,switch,red,black,black,NoInc,3200,0,1394,1,2,198275,202774,204168,48360,11,149.915,154.414,155.808,28.418,274.412,520.406,246.016,492.027,738.021,InConNoInc
1,bas,cue,2,130518,bas_cue_run2_130518,2A,e,v,Con,n,1,1,,switch,red,black,black,NoInc,4400,1,1786,1,1,210273,214772,216558,48360,12,161.913,166.412,168.198,28.418,274.412,520.406,246.016,492.027,738.021,ConNoInc
1,bas,cue,2,130518,bas_cue_run2_130518,2A,e,v,Con,l,1,1,,switch,red,black,black,NoInc,2000,1,1545,1,1,223471,227970,229515,48360,13,175.111,179.61,181.155,28.418,274.412,520.406,246.016,492.027,738.021,ConNoInc
1,bas,cue,2,130518,bas_cue_run2_130518,D4,e,c,InCon,n,1,2,,switch,red,black,green,Inc,4400,1,1174,1,1,234269,238768,239942,48360,14,185.909,190.408,191.582,28.418,274.412,520.406,246.016,492.027,738.021,InConInc
1,bas,cue,2,130518,bas_cue_run2_130518,5H,o,c,Con,n,2,2,,stay,red,black,black,NoInc,4400,1,863,2,2,247467,251966,252829,48360,15,199.107,203.606,204.469,28.418,274.412,520.406,246.016,492.027,738.021,ConNoInc
1,bas,cue,2,130518,bas_cue_run2_130518,B1,o,c,Con,l,2,2,,switch,red,black,black,NoInc,3200,1,1485,2,2,260665,265164,266649,48360,16,212.305,216.804,218.289,28.418,274.412,520.406,246.016,492.027,738.021,ConNoInc
1,bas,cue,2,130518,bas_cue_run2_130518,6I,e,v,Con,n,1,1,,switch,red,black,black,NoInc,2000,1,1468,1,1,272680,277179,278647,48360,17,224.32,228.819,230.287,28.418,274.412,520.406,246.016,492.027,738.021,ConNoInc
1,bas,cue,2,130518,bas_cue_run2_130518,E3,o,v,InCon,n,2,1,,stay,red,black,green,Inc,3200,1,1232,2,2,283478,287977,289209,48360,18,235.118,239.617,240.849,28.418,274.412,520.406,246.016,492.027,738.021,InConInc
1,bas,cue,2,130518,bas_cue_run2_130518,A2,e,v,Con,n,1,1,,,red,black,black,NoInc,4400,1,2059,1,1,325471,329970,332029,48360,19,277.111,281.61,283.669,28.418,274.412,520.406,246.016,492.027,738.021,ConNoInc
1,bas,cue,2,130518,bas_cue_run2_130518,H5,o,c,Con,l,2,2,,switch,red,black,black,NoInc,4400,1,958,2,2,338669,343168,344126,48360,20,290.309,294.808,295.766,28.418,274.412,520.406,246.016,492.027,738.021,ConNoInc
1,bas,cue,2,130518,bas_cue_run2_130518,D4,e,c,InCon,l,1,2,,stay,red,black,green,Inc,2000,1,2042,2,2,351867,356366,358408,48360,21,303.507,308.006,310.048,28.418,274.412,520.406,246.016,492.027,738.021,InConInc
1,bas,cue,2,130518,bas_cue_run2_130518,D4,e,c,InCon,n,1,2,,switch,red,black,green,Inc,2000,0,1301,2,1,362665,367165,368466,48360,22,314.305,318.805,320.106,28.418,274.412,520.406,246.016,492.027,738.021,InConInc
1,bas,cue,2,130518,bas_cue_run2_130518,1B,o,c,Con,l,2,2,,switch,red,black,black,NoInc,3200,1,1017,2,2,373480,377979,378996,48360,23,325.12,329.619,330.636,28.418,274.412,520.406,246.016,492.027,738.021,ConNoInc
1,bas,cue,2,130518,bas_cue_run2_130518,B1,o,c,Con,l,2,2,,stay,red,black,black,NoInc,3200,1,2149,2,2,385478,389978,392127,48360,24,337.118,341.618,343.767,28.418,274.412,520.406,246.016,492.027,738.021,ConNoInc
1,bas,cue,2,130518,bas_cue_run2_130518,I6,e,v,Con,n,1,1,,switch,red,black,black,NoInc,2000,1,2371,1,1,397476,401976,404347,48360,25,349.116,353.616,355.987,28.418,274.412,520.406,246.016,492.027,738.021,ConNoInc
1,bas,cue,2,130518,bas_cue_run2_130518,4D,e,c,InCon,n,1,2,,stay,red,black,green,Inc,3200,1,933,1,1,408275,412774,413707,48360,26,359.915,364.414,365.347,28.418,274.412,520.406,246.016,492.027,738.021,InConInc
1,bas,cue,2,130518,bas_cue_run2_130518,A2,e,v,Con,l,1,1,,switch,red,black,black,NoInc,4400,1,1206,1,1,420273,424772,425978,48360,27,371.913,376.412,377.618,28.418,274.412,520.406,246.016,492.027,738.021,ConNoInc
1,bas,cue,2,130518,bas_cue_run2_130518,2A,e,v,Con,l,1,1,,stay,red,black,black,NoInc,2000,1,1324,1,1,433471,437970,439294,48360,28,385.111,389.61,390.934,28.418,274.412,520.406,246.016,492.027,738.021,ConNoInc
1,bas,cue,2,130518,bas_cue_run2_130518,3E,o,v,InCon,l,2,1,,stay,red,black,green,Inc,4400,1,985,1,1,444269,448768,449753,48360,29,395.909,400.408,401.393,28.418,274.412,520.406,246.016,492.027,738.021,InConInc
1,bas,cue,2,130518,bas_cue_run2_130518,5H,o,c,Con,l,2,2,,stay,red,black,green,Inc,4400,1,968,2,2,457467,461966,462934,48360,30,409.107,413.606,414.574,28.418,274.412,520.406,246.016,492.027,738.021,ConInc
1,bas,cue,2,130518,bas_cue_run2_130518,1A,o,v,InCon,n,2,1,,switch,red,black,black,NoInc,2000,1,1795,2,2,470665,475164,476959,48360,31,422.305,426.804,428.599,28.418,274.412,520.406,246.016,492.027,738.021,InConNoInc
1,bas,cue,2,130518,bas_cue_run2_130518,2A,e,v,Con,n,1,1,,stay,red,black,black,NoInc,2000,1,1371,1,1,481480,485979,487350,48360,32,433.12,437.619,438.99,28.418,274.412,520.406,246.016,492.027,738.021,ConNoInc
1,bas,cue,2,130518,bas_cue_run2_130518,I6,e,v,Con,l,1,1,,switch,red,black,black,NoInc,3200,1,938,1,1,492278,496777,497715,48360,33,443.918,448.417,449.355,28.418,274.412,520.406,246.016,492.027,738.021,ConNoInc
1,bas,cue,2,130518,bas_cue_run2_130518,I6,e,v,Con,n,1,1,,switch,red,black,green,Inc,4400,1,1488,1,1,504276,508775,510263,48360,34,455.916,460.415,461.903,28.418,274.412,520.406,246.016,492.027,738.021,ConInc
1,bas,cue,2,130518,bas_cue_run2_130518,2B,e,c,InCon,n,1,2,,stay,red,black,black,NoInc,3200,1,1051,1,1,517474,521973,523024,48360,35,469.114,473.613,474.664,28.418,274.412,520.406,246.016,492.027,738.021,InConNoInc
1,bas,cue,2,130518,bas_cue_run2_130518,B1,o,c,Con,n,2,2,,stay,red,black,black,NoInc,3200,1,1256,2,2,529472,533971,535227,48360,36,481.112,485.611,486.867,28.418,274.412,520.406,246.016,492.027,738.021,ConNoInc
1,bas,cue,2,130518,bas_cue_run2_130518,D4,e,c,InCon,l,1,2,,,red,black,green,Inc,4400,1,1345,2,2,571465,575964,577309,48360,37,523.105,527.604,528.949,28.418,274.412,520.406,246.016,492.027,738.021,InConInc
1,bas,cue,2,130518,bas_cue_run2_130518,B1,o,c,Con,n,2,2,,switch,red,black,black,NoInc,4400,1,1054,2,2,584680,589179,590233,48360,38,536.32,540.819,541.873,28.418,274.412,520.406,246.016,492.027,738.021,ConNoInc
1,bas,cue,2,130518,bas_cue_run2_130518,H5,o,c,Con,l,2,2,,switch,red,black,black,NoInc,3200,1,1357,2,2,597878,602377,603734,48360,39,549.518,554.017,555.374,28.418,274.412,520.406,246.016,492.027,738.021,ConNoInc
1,bas,cue,2,130518,bas_cue_run2_130518,A2,e,v,Con,l,1,1,,stay,red,black,black,NoInc,3200,1,1322,1,1,609876,614375,615697,48360,40,561.516,566.015,567.337,28.418,274.412,520.406,246.016,492.027,738.021,ConNoInc
1,bas,cue,2,130518,bas_cue_run2_130518,A1,o,v,InCon,l,2,1,,stay,red,black,black,NoInc,2000,1,985,1,1,621874,626373,627358,48360,41,573.514,578.013,578.998,28.418,274.412,520.406,246.016,492.027,738.021,InConNoInc
1,bas,cue,2,130518,bas_cue_run2_130518,2B,e,c,InCon,l,1,2,,stay,red,black,black,NoInc,4400,0,800,1,2,632672,637171,637971,48360,42,584.312,588.811,589.611,28.418,274.412,520.406,246.016,492.027,738.021,InConNoInc
1,bas,cue,2,130518,bas_cue_run2_130518,5H,o,c,Con,n,2,2,,switch,red,black,black,NoInc,3200,1,753,2,2,645870,650369,651122,48360,43,597.51,602.009,602.762,28.418,274.412,520.406,246.016,492.027,738.021,ConNoInc
1,bas,cue,2,130518,bas_cue_run2_130518,6I,e,v,Con,n,1,1,,stay,red,black,black,NoInc,2000,1,1135,1,1,657868,662367,663502,48360,44,609.508,614.007,615.142,28.418,274.412,520.406,246.016,492.027,738.021,ConNoInc
1,bas,cue,2,130518,bas_cue_run2_130518,1B,o,c,Con,l,2,2,,switch,red,black,black,NoInc,2000,1,1480,2,2,668666,673165,674645,48360,45,620.306,624.805,626.285,28.418,274.412,520.406,246.016,492.027,738.021,ConNoInc
1,bas,cue,2,130518,bas_cue_run2_130518,4D,e,c,InCon,l,1,2,,stay,red,black,green,Inc,4400,1,1330,2,2,679464,683980,685310,48360,46,631.104,635.62,636.95,28.418,274.412,520.406,246.016,492.027,738.021,InConInc
1,bas,cue,2,130518,bas_cue_run2_130518,4D,e,c,InCon,n,1,2,,switch,red,black,green,Inc,2000,0,953,2,1,692679,697178,698131,48360,47,644.319,648.818,649.771,28.418,274.412,520.406,246.016,492.027,738.021,InConInc
1,bas,cue,2,130518,bas_cue_run2_130518,A2,e,v,Con,n,1,1,,stay,red,black,black,NoInc,3200,1,1396,1,1,703477,707977,709373,48360,48,655.117,659.617,661.013,28.418,274.412,520.406,246.016,492.027,738.021,ConNoInc
1,bas,cue,2,130518,bas_cue_run2_130518,1B,o,c,Con,n,2,2,,stay,red,black,black,NoInc,2000,1,1279,2,2,715475,719975,721254,48360,49,667.115,671.615,672.894,28.418,274.412,520.406,246.016,492.027,738.021,ConNoInc
1,bas,cue,2,130518,bas_cue_run2_130518,2A,e,v,Con,n,1,1,,stay,red,black,black,NoInc,4400,1,976,1,1,726274,730773,731749,48360,50,677.914,682.413,683.389,28.418,274.412,520.406,246.016,492.027,738.021,ConNoInc
1,bas,cue,2,130518,bas_cue_run2_130518,H5,o,c,Con,n,2,2,,stay,red,black,green,Inc,3200,1,1549,2,2,739471,743971,745520,48360,51,691.111,695.611,697.16,28.418,274.412,520.406,246.016,492.027,738.021,ConInc
1,bas,cue,2,130518,bas_cue_run2_130518,3E,o,v,InCon,n,2,1,,stay,red,black,green,Inc,2000,1,1782,2,2,751470,755969,757751,48360,52,703.11,707.609,709.391,28.418,274.412,520.406,246.016,492.027,738.021,InConInc
1,bas,cue,2,130518,bas_cue_run2_130518,B1,o,c,Con,l,2,2,,switch,red,black,black,NoInc,3200,1,1927,2,2,762268,766767,768694,48360,53,713.908,718.407,720.334,28.418,274.412,520.406,246.016,492.027,738.021,ConNoInc
1,bas,cue,2,130518,bas_cue_run2_130518,E3,o,v,InCon,l,2,1,,stay,red,black,green,Inc,4400,1,792,1,1,774266,778765,779557,48360,54,725.906,730.405,731.197,28.418,274.412,520.406,246.016,492.027,738.021,InConInc
1,pro,cue,1,130518,pro_cue_run1_130518,A2,e,v,Con,n,1,1,,,red,black,black,NoInc,3200,1,745,1,1,188913,193413,194158,157800,1,31.113,35.613,36.358,28.414,274.408,520.419,246.013,492.024,738.018,ConNoInc
1,pro,cue,1,130518,pro_cue_run1_130518,I6,e,v,Con,n,1,1,,stay,red,black,black,NoInc,2000,1,555,1,1,200912,205411,205966,157800,2,43.112,47.611,48.166,28.414,274.408,520.419,246.013,492.024,738.018,ConNoInc
1,pro,cue,1,130518,pro_cue_run1_130518,H5,o,c,Con,l,2,2,,switch,red,black,black,NoInc,3200,1,534,2,2,211710,216209,216743,157800,3,53.91,58.409,58.943,28.414,274.408,520.419,246.013,492.024,738.018,ConNoInc
1,pro,cue,1,130518,pro_cue_run1_130518,B1,o,c,Con,l,2,2,,stay,red,black,black,NoInc,2000,1,627,2,2,223708,228207,228834,157800,4,65.908,70.407,71.034,28.414,274.408,520.419,246.013,492.024,738.018,ConNoInc
1,pro,cue,1,130518,pro_cue_run1_130518,B2,e,c,InCon,n,1,2,,switch,red,black,black,NoInc,4400,1,608,1,1,234506,239005,239613,157800,5,76.706,81.205,81.813,28.414,274.408,520.419,246.013,492.024,738.018,InConNoInc
1,pro,cue,1,130518,pro_cue_run1_130518,1A,o,v,InCon,l,2,1,,switch,red,black,black,NoInc,2000,1,661,1,1,247704,252220,252881,157800,6,89.904,94.42,95.081,28.414,274.408,520.419,246.013,492.024,738.018,InConNoInc
1,pro,cue,1,130518,pro_cue_run1_130518,E3,o,v,InCon,l,2,1,yes,stay,green,black,green,Inc,4400,1,648,1,1,258519,263018,263666,157800,7,100.719,105.218,105.866,28.414,274.408,520.419,246.013,492.024,738.018,InConInc
1,pro,cue,1,130518,pro_cue_run1_130518,4D,e,c,InCon,n,1,2,yes,switch,green,black,green,Inc,4400,1,816,1,1,271717,276216,277032,157800,8,113.917,118.416,119.232,28.414,274.408,520.419,246.013,492.024,738.018,InConInc
1,pro,cue,1,130518,pro_cue_run1_130518,D4,e,c,InCon,l,1,2,error,switch,green,black,green,Inc,3200,0,569,1,2,284915,289414,289983,157800,9,127.115,131.614,132.183,28.414,274.408,520.419,246.013,492.024,738.018,InConInc
1,pro,cue,1,130518,pro_cue_run1_130518,A2,e,v,Con,l,1,1,,stay,red,black,black,NoInc,2000,1,648,1,1,296913,301412,302060,157800,10,139.113,143.612,144.26,28.414,274.408,520.419,246.013,492.024,738.018,ConNoInc
1,pro,cue,1,130518,pro_cue_run1_130518,B1,o,c,Con,n,2,2,,switch,red,black,black,NoInc,2000,1,512,2,2,307711,312211,312723,157800,11,149.911,154.411,154.923,28.414,274.408,520.419,246.013,492.024,738.018,ConNoInc
1,pro,cue,1,130518,pro_cue_run1_130518,1B,o,c,Con,n,2,2,,stay,red,black,black,NoInc,3200,1,479,2,2,318510,323009,323488,157800,12,160.71,165.209,165.688,28.414,274.408,520.419,246.013,492.024,738.018,ConNoInc
1,pro,cue,1,130518,pro_cue_run1_130518,5H,o,c,Con,l,2,2,,switch,red,black,black,NoInc,2000,1,563,2,2,330508,335007,335570,157800,13,172.708,177.207,177.77,28.414,274.408,520.419,246.013,492.024,738.018,ConNoInc
1,pro,cue,1,130518,pro_cue_run1_130518,2A,e,v,Con,n,1,1,,switch,red,black,black,NoInc,4400,1,933,1,1,341306,345805,346738,157800,14,183.506,188.005,188.938,28.414,274.408,520.419,246.013,492.024,738.018,ConNoInc
1,pro,cue,1,130518,pro_cue_run1_130518,I6,e,v,Con,l,1,1,yes,switch,green,black,green,Inc,4400,1,603,1,1,354504,359020,359623,157800,15,196.704,201.22,201.823,28.414,274.408,520.419,246.013,492.024,738.018,ConInc
1,pro,cue,1,130518,pro_cue_run1_130518,D4,e,c,InCon,n,1,2,yes,switch,green,black,green,Inc,3200,1,789,1,1,367718,372218,373007,157800,16,209.918,214.418,215.207,28.414,274.408,520.419,246.013,492.024,738.018,InConInc
1,pro,cue,1,130518,pro_cue_run1_130518,1B,o,c,Con,l,2,2,,switch,red,black,black,NoInc,4400,1,485,2,2,379717,384216,384701,157800,17,221.917,226.416,226.901,28.414,274.408,520.419,246.013,492.024,738.018,ConNoInc
1,pro,cue,1,130518,pro_cue_run1_130518,6I,e,v,Con,n,1,1,yes,switch,green,black,green,Inc,3200,1,737,1,1,392914,397414,398151,157800,18,235.114,239.614,240.351,28.414,274.408,520.419,246.013,492.024,738.018,ConInc
1,pro,cue,1,130518,pro_cue_run1_130518,I6,e,v,Con,l,1,1,,,red,black,black,NoInc,4400,1,1242,1,1,434908,439407,440649,157800,19,277.108,281.607,282.849,28.414,274.408,520.419,246.013,492.024,738.018,ConNoInc
1,pro,cue,1,130518,pro_cue_run1_130518,B1,o,c,Con,l,2,2,,stay,red,black,black,NoInc,3200,1,892,2,2,448106,452605,453497,157800,20,290.306,294.805,295.697,28.414,274.408,520.419,246.013,492.024,738.018,ConNoInc
1,pro,cue,1,130518,pro_cue_run1_130518,5H,o,c,Con,l,2,2,,stay,red,black,black,NoInc,3200,1,589,2,2,460104,464620,465209,157800,21,302.304,306.82,307.409,28.414,274.408,520.419,246.013,492.024,738.018,ConNoInc
1,pro,cue,1,130518,pro_cue_run1_130518,E3,o,v,InCon,n,2,1,yes,switch,green,black,green,Inc,2000,1,1073,2,2,472119,476618,477691,157800,22,314.319,318.818,319.891,28.414,274.408,520.419,246.013,492.024,738.018,InConInc
1,pro,cue,1,130518,pro_cue_run1_130518,2A,e,v,Con,l,1,1,,switch,red,black,black,NoInc,4400,1,1266,1,1,482917,487416,488682,157800,23,325.117,329.616,330.882,28.414,274.408,520.419,246.013,492.024,738.018,ConNoInc
1,pro,cue,1,130518,pro_cue_run1_130518,D4,e,c,InCon,l,1,2,yes,stay,green,black,green,Inc,2000,1,1015,2,2,496115,500614,501629,157800,24,338.315,342.814,343.829,28.414,274.408,520.419,246.013,492.024,738.018,InConInc
1,pro,cue,1,130518,pro_cue_run1_130518,1B,o,c,Con,n,2,2,,switch,red,black,black,NoInc,4400,1,567,2,2,506913,511412,511979,157800,25,349.113,353.612,354.179,28.414,274.408,520.419,246.013,492.024,738.018,ConNoInc
1,pro,cue,1,130518,pro_cue_run1_130518,A1,o,v,InCon,n,2,1,,stay,red,black,black,NoInc,3200,1,914,2,2,520111,524610,525524,157800,26,362.311,366.81,367.724,28.414,274.408,520.419,246.013,492.024,738.018,InConNoInc
1,pro,cue,1,130518,pro_cue_run1_130518,5H,o,c,Con,n,2,2,yes,stay,green,black,green,Inc,2000,1,572,2,2,532109,536608,537180,157800,27,374.309,378.808,379.38,28.414,274.408,520.419,246.013,492.024,738.018,ConInc
1,pro,cue,1,130518,pro_cue_run1_130518,2B,e,c,InCon,l,1,2,,switch,red,black,black,NoInc,3200,1,770,2,2,542907,547407,548177,157800,28,385.107,389.607,390.377,28.414,274.408,520.419,246.013,492.024,738.018,InConNoInc
1,pro,cue,1,130518,pro_cue_run1_130518,6I,e,v,Con,n,1,1,,switch,red,black,black,NoInc,2000,1,767,1,1,554905,559405,560172,157800,29,397.105,401.605,402.372,28.414,274.408,520.419,246.013,492.024,738.018,ConNoInc
1,pro,cue,1,130518,pro_cue_run1_130518,1B,o,c,Con,l,2,2,,switch,red,black,black,NoInc,4400,1,745,2,2,565704,570220,570965,157800,30,407.904,412.42,413.165,28.414,274.408,520.419,246.013,492.024,738.018,ConNoInc
1,pro,cue,1,130518,pro_cue_run1_130518,A2,e,v,Con,n,1,1,,switch,red,black,black,NoInc,3200,1,1358,1,1,578918,583418,584776,157800,31,421.118,425.618,426.976,28.414,274.408,520.419,246.013,492.024,738.018,ConNoInc
1,pro,cue,1,130518,pro_cue_run1_130518,3E,o,v,InCon,n,2,1,yes,stay,green,black,green,Inc,2000,1,1111,2,2,590916,595416,596527,157800,32,433.116,437.616,438.727,28.414,274.408,520.419,246.013,492.024,738.018,InConInc
1,pro,cue,1,130518,pro_cue_run1_130518,3E,o,v,InCon,l,2,1,yes,switch,green,black,green,Inc,2000,1,957,1,1,601715,606214,607171,157800,33,443.915,448.414,449.371,28.414,274.408,520.419,246.013,492.024,738.018,InConInc
1,pro,cue,1,130518,pro_cue_run1_130518,2A,e,v,Con,l,1,1,,stay,red,black,black,NoInc,3200,0,568,2,1,612513,617012,617580,157800,34,454.713,459.212,459.78,28.414,274.408,520.419,246.013,492.024,738.018,ConNoInc
1,pro,cue,1,130518,pro_cue_run1_130518,E3,o,v,InCon,n,2,1,yes,switch,green,black,green,Inc,4400,1,1319,2,2,624511,629010,630329,157800,35,466.711,471.21,472.529,28.414,274.408,520.419,246.013,492.024,738.018,InConInc
1,pro,cue,1,130518,pro_cue_run1_130518,2A,e,v,Con,n,1,1,,stay,red,black,black,NoInc,4400,1,605,1,1,637709,642208,642813,157800,36,479.909,484.408,485.013,28.414,274.408,520.419,246.013,492.024,738.018,ConNoInc
1,pro,cue,1,130518,pro_cue_run1_130518,H5,o,c,Con,n,2,2,,,red,black,black,NoInc,4400,1,807,2,2,680919,685418,686225,157800,37,523.119,527.618,528.425,28.414,274.408,520.419,246.013,492.024,738.018,ConNoInc
1,pro,cue,1,130518,pro_cue_run1_130518,3E,o,v,InCon,n,2,1,yes,stay,green,black,green,Inc,2000,1,697,2,2,694117,698616,699313,157800,38,536.317,540.816,541.513,28.414,274.408,520.419,246.013,492.024,738.018,InConInc
1,pro,cue,1,130518,pro_cue_run1_130518,1A,o,v,InCon,n,2,1,,stay,red,black,black,NoInc,3200,1,860,2,2,704915,709414,710274,157800,39,547.115,551.614,552.474,28.414,274.408,520.419,246.013,492.024,738.018,InConNoInc
1,pro,cue,1,130518,pro_cue_run1_130518,6I,e,v,Con,l,1,1,,switch,red,black,black,NoInc,2000,1,1409,1,1,716913,721412,722821,157800,40,559.113,563.612,565.021,28.414,274.408,520.419,246.013,492.024,738.018,ConNoInc
1,pro,cue,1,130518,pro_cue_run1_130518,3E,o,v,InCon,l,2,1,yes,stay,green,black,green,Inc,4400,1,678,1,1,727711,732211,732889,157800,41,569.911,574.411,575.089,28.414,274.408,520.419,246.013,492.024,738.018,InConInc
1,pro,cue,1,130518,pro_cue_run1_130518,H5,o,c,Con,l,2,2,yes,stay,green,black,green,Inc,2000,1,692,2,2,740909,745409,746101,157800,42,583.109,587.609,588.301,28.414,274.408,520.419,246.013,492.024,738.018,ConInc
1,pro,cue,1,130518,pro_cue_run1_130518,A2,e,v,Con,l,1,1,,stay,red,black,black,NoInc,3200,1,962,1,1,751708,756207,757169,157800,43,593.908,598.407,599.369,28.414,274.408,520.419,246.013,492.024,738.018,ConNoInc
1,pro,cue,1,130518,pro_cue_run1_130518,E3,o,v,InCon,l,2,1,yes,stay,green,black,green,Inc,4400,1,718,1,1,763706,768205,768923,157800,44,605.906,610.405,611.123,28.414,274.408,520.419,246.013,492.024,738.018,InConInc
1,pro,cue,1,130518,pro_cue_run1_130518,1B,o,c,Con,l,2,2,,stay,red,black,black,NoInc,3200,1,878,2,2,776904,781419,782297,157800,45,619.104,623.619,624.497,28.414,274.408,520.419,246.013,492.024,738.018,ConNoInc
1,pro,cue,1,130518,pro_cue_run1_130518,A2,e,v,Con,n,1,1,,switch,red,black,black,NoInc,3200,1,1366,1,1,788918,793418,794784,157800,46,631.118,635.618,636.984,28.414,274.408,520.419,246.013,492.024,738.018,ConNoInc
1,pro,cue,1,130518,pro_cue_run1_130518,6I,e,v,Con,n,1,1,,stay,red,black,black,NoInc,2000,1,874,1,1,800916,805416,806290,157800,47,643.116,647.616,648.49,28.414,274.408,520.419,246.013,492.024,738.018,ConNoInc
1,pro,cue,1,130518,pro_cue_run1_130518,2A,e,v,Con,n,1,1,,stay,red,black,black,NoInc,2000,1,592,1,1,811715,816214,816806,157800,48,653.915,658.414,659.006,28.414,274.408,520.419,246.013,492.024,738.018,ConNoInc
1,pro,cue,1,130518,pro_cue_run1_130518,B1,o,c,Con,n,2,2,,stay,red,black,black,NoInc,4400,1,557,2,2,822513,827012,827569,157800,49,664.713,669.212,669.769,28.414,274.408,520.419,246.013,492.024,738.018,ConNoInc
1,pro,cue,1,130518,pro_cue_run1_130518,4D,e,c,InCon,l,1,2,yes,switch,green,black,green,Inc,2000,1,1267,2,2,835711,840210,841477,157800,50,677.911,682.41,683.677,28.414,274.408,520.419,246.013,492.024,738.018,InConInc
1,pro,cue,1,130518,pro_cue_run1_130518,B1,o,c,Con,l,2,2,,stay,red,black,black,NoInc,4400,1,729,2,2,846509,851008,851737,157800,51,688.709,693.208,693.937,28.414,274.408,520.419,246.013,492.024,738.018,ConNoInc
1,pro,cue,1,130518,pro_cue_run1_130518,2A,e,v,Con,l,1,1,,stay,red,black,black,NoInc,4400,1,759,1,1,859707,864206,864965,157800,52,701.907,706.406,707.165,28.414,274.408,520.419,246.013,492.024,738.018,ConNoInc
1,pro,cue,1,130518,pro_cue_run1_130518,1B,o,c,Con,n,2,2,,switch,red,black,black,NoInc,3200,1,701,2,2,872905,877404,878105,157800,53,715.105,719.604,720.305,28.414,274.408,520.419,246.013,492.024,738.018,ConNoInc
1,pro,cue,1,130518,pro_cue_run1_130518,4D,e,c,InCon,n,1,2,yes,stay,green,black,green,Inc,3200,1,760,1,1,884920,889419,890179,157800,54,727.12,731.619,732.379,28.414,274.408,520.419,246.013,492.024,738.018,InConInc
1,pro,cue,2,130518,pro_cue_run2_130518,B2,e,c,InCon,l,1,2,,,red,black,black,NoInc,3200,1,941,2,2,84143,88642,89583,53033,1,31.11,35.609,36.55,28.41,274.405,520.416,246.026,492.02,738.014,InConNoInc
1,pro,cue,2,130518,pro_cue_run2_130518,6I,e,v,Con,l,1,1,yes,stay,green,black,green,Inc,4400,1,713,1,1,96141,100640,101353,53033,2,43.108,47.607,48.32,28.41,274.405,520.416,246.026,492.02,738.014,ConInc
1,pro,cue,2,130518,pro_cue_run2_130518,1B,o,c,Con,l,2,2,,stay,red,black,black,NoInc,3200,1,703,2,2,109339,113838,114541,53033,3,56.306,60.805,61.508,28.41,274.405,520.416,246.026,492.02,738.014,ConNoInc
1,pro,cue,2,130518,pro_cue_run2_130518,E3,o,v,InCon,n,2,1,yes,switch,green,black,green,Inc,2000,1,710,2,2,121337,125836,126546,53033,4,68.304,72.803,73.513,28.41,274.405,520.416,246.026,492.02,738.014,InConInc
1,pro,cue,2,130518,pro_cue_run2_130518,2A,e,v,Con,l,1,1,,switch,red,black,black,NoInc,2000,1,587,1,1,132135,136651,137238,53033,5,79.102,83.618,84.205,28.41,274.405,520.416,246.026,492.02,738.014,ConNoInc
1,pro,cue,2,130518,pro_cue_run2_130518,H5,o,c,Con,l,2,2,,stay,red,black,black,NoInc,3200,1,715,2,2,142950,147449,148164,53033,6,89.917,94.416,95.131,28.41,274.405,520.416,246.026,492.02,738.014,ConNoInc
1,pro,cue,2,130518,pro_cue_run2_130518,A2,e,v,Con,n,1,1,,switch,red,black,black,NoInc,4400,1,485,1,1,154948,159448,159933,53033,7,101.915,106.415,106.9,28.41,274.405,520.416,246.026,492.02,738.014,ConNoInc
1,pro,cue,2,130518,pro_cue_run2_130518,2A,e,v,Con,n,1,1,,stay,red,black,black,NoInc,2000,1,561,1,1,168146,172645,173206,53033,8,115.113,119.612,120.173,28.41,274.405,520.416,246.026,492.02,738.014,ConNoInc
1,pro,cue,2,130518,pro_cue_run2_130518,A2,e,v,Con,l,1,1,,switch,red,black,black,NoInc,4400,1,880,1,1,178944,183444,184324,53033,9,125.911,130.411,131.291,28.41,274.405,520.416,246.026,492.02,738.014,ConNoInc
1,pro,cue,2,130518,pro_cue_run2_130518,1B,o,c,Con,n,2,2,,switch,red,black,black,NoInc,4400,1,925,2,2,192142,196642,197567,53033,10,139.109,143.609,144.534,28.41,274.405,520.416,246.026,492.02,738.014,ConNoInc
1,pro,cue,2,130518,pro_cue_run2_130518,B1,o,c,Con,l,2,2,,switch,red,black,black,NoInc,4400,1,1013,2,2,205340,209840,210853,53033,11,152.307,156.807,157.82,28.41,274.405,520.416,246.026,492.02,738.014,ConNoInc
1,pro,cue,2,130518,pro_cue_run2_130518,E3,o,v,InCon,l,2,1,yes,stay,green,black,green,Inc,3200,1,629,1,1,218538,223037,223666,53033,12,165.505,170.004,170.633,28.41,274.405,520.416,246.026,492.02,738.014,InConInc
1,pro,cue,2,130518,pro_cue_run2_130518,B1,o,c,Con,n,2,2,,switch,red,black,black,NoInc,3200,1,721,2,2,230536,235036,235757,53033,13,177.503,182.003,182.724,28.41,274.405,520.416,246.026,492.02,738.014,ConNoInc
1,pro,cue,2,130518,pro_cue_run2_130518,3E,o,v,InCon,n,2,1,yes,stay,green,black,green,Inc,4400,1,855,2,2,242551,247050,247905,53033,14,189.518,194.017,194.872,28.41,274.405,520.416,246.026,492.02,738.014,InConInc
1,pro,cue,2,130518,pro_cue_run2_130518,5H,o,c,Con,n,2,2,,stay,red,black,black,NoInc,3200,1,709,2,2,255749,260248,260957,53033,15,202.716,207.215,207.924,28.41,274.405,520.416,246.026,492.02,738.014,ConNoInc
1,pro,cue,2,130518,pro_cue_run2_130518,D4,e,c,InCon,n,1,2,yes,stay,green,black,green,Inc,2000,1,1310,1,1,267747,272246,273556,53033,16,214.714,219.213,220.523,28.41,274.405,520.416,246.026,492.02,738.014,InConInc
1,pro,cue,2,130518,pro_cue_run2_130518,4D,e,c,InCon,l,1,2,yes,switch,green,black,green,Inc,2000,1,1077,2,2,278545,283045,284122,53033,17,225.512,230.012,231.089,28.41,274.405,520.416,246.026,492.02,738.014,InConInc
1,pro,cue,2,130518,pro_cue_run2_130518,6I,e,v,Con,n,1,1,,switch,red,black,black,NoInc,2000,1,882,1,1,289344,293843,294725,53033,18,236.311,240.81,241.692,28.41,274.405,520.416,246.026,492.02,738.014,ConNoInc
1,pro,cue,2,130518,pro_cue_run2_130518,B1,o,c,Con,n,2,2,,,red,black,black,NoInc,2000,1,991,2,2,330137,334636,335627,53033,19,277.104,281.603,282.594,28.41,274.405,520.416,246.026,492.02,738.014,ConNoInc
1,pro,cue,2,130518,pro_cue_run2_130518,D4,e,c,InCon,l,1,2,yes,switch,green,black,green,Inc,4400,1,732,2,2,340935,345451,346183,53033,20,287.902,292.418,293.15,28.41,274.405,520.416,246.026,492.02,738.014,InConInc
1,pro,cue,2,130518,pro_cue_run2_130518,I6,e,v,Con,l,1,1,,stay,red,black,black,NoInc,4400,1,827,1,1,354150,358649,359476,53033,21,301.117,305.616,306.443,28.41,274.405,520.416,246.026,492.02,738.014,ConNoInc
1,pro,cue,2,130518,pro_cue_run2_130518,2A,e,v,Con,n,1,1,,switch,red,black,black,NoInc,3200,1,893,1,1,367348,371847,372740,53033,22,314.315,318.814,319.707,28.41,274.405,520.416,246.026,492.02,738.014,ConNoInc
1,pro,cue,2,130518,pro_cue_run2_130518,2A,e,v,Con,l,1,1,,switch,red,black,black,NoInc,3200,1,821,1,1,379346,383845,384666,53033,23,326.313,330.812,331.633,28.41,274.405,520.416,246.026,492.02,738.014,ConNoInc
1,pro,cue,2,130518,pro_cue_run2_130518,4D,e,c,InCon,n,1,2,yes,switch,green,black,green,Inc,2000,1,620,1,1,391344,395843,396463,53033,24,338.311,342.81,343.43,28.41,274.405,520.416,246.026,492.02,738.014,InConInc
1,pro,cue,2,130518,pro_cue_run2_130518,1B,o,c,Con,l,2,2,,switch,red,black,black,NoInc,4400,1,775,2,2,402142,406642,407417,53033,25,349.109,353.609,354.384,28.41,274.405,520.416,246.026,492.02,738.014,ConNoInc
1,pro,cue,2,130518,pro_cue_run2_130518,1A,o,v,InCon,n,2,1,,switch,red,black,black,NoInc,3200,1,1462,2,2,415340,419840,421302,53033,26,362.307,366.807,368.269,28.41,274.405,520.416,246.026,492.02,738.014,InConNoInc
1,pro,cue,2,130518,pro_cue_run2_130518,B1,o,c,Con,l,2,2,,switch,red,black,black,NoInc,2000,1,615,2,2,427338,431838,432453,53033,27,374.305,378.805,379.42,28.41,274.405,520.416,246.026,492.02,738.014,ConNoInc
1,pro,cue,2,130518,pro_cue_run2_130518,3E,o,v,InCon,l,2,1,yes,stay,green,black,green,Inc,3200,1,763,1,1,438137,442636,443399,53033,28,385.104,389.603,390.366,28.41,274.405,520.416,246.026,492.02,738.014,InConInc
1,pro,cue,2,130518,pro_cue_run2_130518,I6,e,v,Con,n,1,1,yes,switch,green,black,green,Inc,4400,1,724,1,1,450135,454651,455375,53033,29,397.102,401.618,402.342,28.41,274.405,520.416,246.026,492.02,738.014,ConInc
1,pro,cue,2,130518,pro_cue_run2_130518,A2,e,v,Con,l,1,1,,switch,red,black,black,NoInc,3200,1,1219,1,1,463349,467849,469068,53033,30,410.316,414.816,416.035,28.41,274.405,520.416,246.026,492.02,738.014,ConNoInc
1,pro,cue,2,130518,pro_cue_run2_130518,2B,e,c,InCon,n,1,2,,switch,red,black,black,NoInc,2000,1,1097,1,1,475347,479847,480944,53033,31,422.314,426.814,427.911,28.41,274.405,520.416,246.026,492.02,738.014,InConNoInc
1,pro,cue,2,130518,pro_cue_run2_130518,5H,o,c,Con,l,2,2,yes,switch,green,black,green,Inc,2000,1,845,2,2,486146,490645,491490,53033,32,433.113,437.612,438.457,28.41,274.405,520.416,246.026,492.02,738.014,ConInc
1,pro,cue,2,130518,pro_cue_run2_130518,D4,e,c,InCon,n,1,2,yes,switch,green,black,green,Inc,3200,1,955,1,1,496944,501443,502398,53033,33,443.911,448.41,449.365,28.41,274.405,520.416,246.026,492.02,738.014,InConInc
1,pro,cue,2,130518,pro_cue_run2_130518,I6,e,v,Con,n,1,1,,stay,red,black,black,NoInc,4400,1,800,1,1,508942,513441,514241,53033,34,455.909,460.408,461.208,28.41,274.405,520.416,246.026,492.02,738.014,ConNoInc
1,pro,cue,2,130518,pro_cue_run2_130518,A2,e,v,Con,n,1,1,,stay,red,black,black,NoInc,4400,0,1062,2,1,522140,526639,527701,53033,35,469.107,473.606,474.668,28.41,274.405,520.416,246.026,492.02,738.014,ConNoInc
1,pro,cue,2,130518,pro_cue_run2_130518,H5,o,c,Con,l,2,2,,switch,red,black,black,NoInc,2000,1,1044,2,2,535338,539837,540881,53033,36,482.305,486.804,487.848,28.41,274.405,520.416,246.026,492.02,738.014,ConNoInc
1,pro,cue,2,130518,pro_cue_run2_130518,3E,o,v,InCon,n,2,1,yes,,green,black,green,Inc,2000,1,981,2,2,576148,580647,581628,53033,37,523.115,527.614,528.595,28.41,274.405,520.416,246.026,492.02,738.014,InConInc
1,pro,cue,2,130518,pro_cue_run2_130518,2A,e,v,Con,n,1,1,,stay,red,black,black,NoInc,4400,1,1125,1,1,586946,591446,592571,53033,38,533.913,538.413,539.538,28.41,274.405,520.416,246.026,492.02,738.014,ConNoInc
1,pro,cue,2,130518,pro_cue_run2_130518,5H,o,c,Con,n,2,2,,stay,red,black,black,NoInc,3200,1,722,2,2,600144,604644,605366,53033,39,547.111,551.611,552.333,28.41,274.405,520.416,246.026,492.02,738.014,ConNoInc
1,pro,cue,2,130518,pro_cue_run2_130518,A2,e,v,Con,n,1,1,,stay,red,black,black,NoInc,4400,1,660,1,1,612142,616642,617302,53033,40,559.109,563.609,564.269,28.41,274.405,520.416,246.026,492.02,738.014,ConNoInc
1,pro,cue,2,130518,pro_cue_run2_130518,B1,o,c,Con,l,2,2,,switch,red,black,black,NoInc,2000,1,1028,2,2,625340,629840,630868,53033,41,572.307,576.807,577.835,28.41,274.405,520.416,246.026,492.02,738.014,ConNoInc
1,pro,cue,2,130518,pro_cue_run2_130518,H5,o,c,Con,l,2,2,,stay,red,black,black,NoInc,3200,1,645,2,2,636139,640638,641283,53033,42,583.106,587.605,588.25,28.41,274.405,520.416,246.026,492.02,738.014,ConNoInc
1,pro,cue,2,130518,pro_cue_run2_130518,6I,e,v,Con,n,1,1,,switch,red,black,black,NoInc,4400,1,663,1,1,648137,652636,653299,53033,43,595.104,599.603,600.266,28.41,274.405,520.416,246.026,492.02,738.014,ConNoInc
1,pro,cue,2,130518,pro_cue_run2_130518,1B,o,c,Con,n,2,2,,stay,red,black,black,NoInc,3200,1,851,2,2,661335,665851,666702,53033,44,608.302,612.818,613.669,28.41,274.405,520.416,246.026,492.02,738.014,ConNoInc
1,pro,cue,2,130518,pro_cue_run2_130518,D4,e,c,InCon,l,1,2,yes,switch,green,black,green,Inc,2000,1,915,2,2,673349,677849,678764,53033,45,620.316,624.816,625.731,28.41,274.405,520.416,246.026,492.02,738.014,InConInc
1,pro,cue,2,130518,pro_cue_run2_130518,H5,o,c,Con,n,2,2,yes,switch,green,black,green,Inc,2000,1,665,2,2,684148,688647,689312,53033,46,631.115,635.614,636.279,28.41,274.405,520.416,246.026,492.02,738.014,ConInc
1,pro,cue,2,130518,pro_cue_run2_130518,E3,o,v,InCon,l,2,1,yes,switch,green,black,green,Inc,4400,1,662,1,1,694946,699445,700107,53033,47,641.913,646.412,647.074,28.41,274.405,520.416,246.026,492.02,738.014,InConInc
1,pro,cue,2,130518,pro_cue_run2_130518,2B,e,c,InCon,l,1,2,,stay,red,black,black,NoInc,4400,1,896,2,2,708144,712643,713539,53033,48,655.111,659.61,660.506,28.41,274.405,520.416,246.026,492.02,738.014,InConNoInc
1,pro,cue,2,130518,pro_cue_run2_130518,B1,o,c,Con,n,2,2,,switch,red,black,black,NoInc,3200,1,867,2,2,721342,725841,726708,53033,49,668.309,672.808,673.675,28.41,274.405,520.416,246.026,492.02,738.014,ConNoInc
1,pro,cue,2,130518,pro_cue_run2_130518,A2,e,v,Con,l,1,1,,switch,red,black,black,NoInc,3200,1,852,1,1,733340,737839,738691,53033,50,680.307,684.806,685.658,28.41,274.405,520.416,246.026,492.02,738.014,ConNoInc
1,pro,cue,2,130518,pro_cue_run2_130518,4D,e,c,InCon,l,1,2,yes,stay,green,black,green,Inc,2000,1,1089,2,2,745338,749837,750926,53033,51,692.305,696.804,697.893,28.41,274.405,520.416,246.026,492.02,738.014,InConInc
1,pro,cue,2,130518,pro_cue_run2_130518,A1,o,v,InCon,l,2,1,,stay,red,black,black,NoInc,2000,1,1068,1,1,756136,760636,761704,53033,52,703.103,707.603,708.671,28.41,274.405,520.416,246.026,492.02,738.014,InConNoInc
1,pro,cue,2,130518,pro_cue_run2_130518,1B,o,c,Con,l,2,2,,stay,red,black,black,NoInc,3200,1,1312,2,2,766935,771450,772762,53033,53,713.902,718.417,719.729,28.41,274.405,520.416,246.026,492.02,738.014,ConNoInc
1,pro,cue,2,130518,pro_cue_run2_130518,4D,e,c,InCon,n,1,2,yes,switch,green,black,green,Inc,4400,1,805,1,1,778949,783449,784254,53033,54,725.916,730.416,731.221,28.41,274.405,520.416,246.026,492.02,738.014,InConInc
1,rea,cue,1,130518,rea_cue_run1_130518,D4,e,c,InCon,l,1,2,yes,,red,green,green,Inc,4400,1,2287,2,2,196812,201311,203598,165701,1,31.111,35.61,37.897,28.411,274.405,520.415,246.026,492.02,738.014,InConInc
1,rea,cue,1,130518,rea_cue_run1_130518,5H,o,c,Con,l,2,2,,stay,red,black,black,NoInc,2000,1,901,2,2,210009,214509,215410,165701,2,44.308,48.808,49.709,28.411,274.405,520.415,246.026,492.02,738.014,ConNoInc
1,rea,cue,1,130518,rea_cue_run1_130518,E3,o,v,InCon,l,2,1,yes,stay,red,green,green,Inc,2000,1,696,1,1,220808,225307,226003,165701,3,55.107,59.606,60.302,28.411,274.405,520.415,246.026,492.02,738.014,InConInc
1,rea,cue,1,130518,rea_cue_run1_130518,B1,o,c,Con,n,2,2,,switch,red,black,black,NoInc,4400,1,1219,2,2,231606,236105,237324,165701,4,65.905,70.404,71.623,28.411,274.405,520.415,246.026,492.02,738.014,ConNoInc
1,rea,cue,1,130518,rea_cue_run1_130518,B2,e,c,InCon,n,1,2,,stay,red,black,black,NoInc,3200,1,916,1,1,244804,249303,250219,165701,5,79.103,83.602,84.518,28.411,274.405,520.415,246.026,492.02,738.014,InConNoInc
1,rea,cue,1,130518,rea_cue_run1_130518,1B,o,c,Con,l,2,2,,switch,red,black,black,NoInc,4400,1,774,2,2,256819,261318,262092,165701,6,91.118,95.617,96.391,28.411,274.405,520.415,246.026,492.02,738.014,ConNoInc
1,rea,cue,1,130518,rea_cue_run1_130518,4D,e,c,InCon,n,1,2,yes,switch,red,green,green,Inc,3200,1,1269,1,1,270016,274516,275785,165701,7,104.315,108.815,110.084,28.411,274.405,520.415,246.026,492.02,738.014,InConInc
1,rea,cue,1,130518,rea_cue_run1_130518,I6,e,v,Con,n,1,1,,stay,red,black,black,NoInc,3200,1,1027,1,1,282015,286514,287541,165701,8,116.314,120.813,121.84,28.411,274.405,520.415,246.026,492.02,738.014,ConNoInc
1,rea,cue,1,130518,rea_cue_run1_130518,A2,e,v,Con,l,1,1,,switch,red,black,black,NoInc,2000,1,981,1,1,294013,298512,299493,165701,9,128.312,132.811,133.792,28.411,274.405,520.415,246.026,492.02,738.014,ConNoInc
1,rea,cue,1,130518,rea_cue_run1_130518,A2,e,v,Con,n,1,1,,switch,red,black,black,NoInc,4400,1,950,1,1,304811,309310,310260,165701,10,139.11,143.609,144.559,28.411,274.405,520.415,246.026,492.02,738.014,ConNoInc
1,rea,cue,1,130518,rea_cue_run1_130518,B1,o,c,Con,l,2,2,,switch,red,black,black,NoInc,3200,1,734,2,2,318009,322508,323242,165701,11,152.308,156.807,157.541,28.411,274.405,520.415,246.026,492.02,738.014,ConNoInc
1,rea,cue,1,130518,rea_cue_run1_130518,6I,e,v,Con,n,1,1,yes,switch,red,green,green,Inc,3200,1,1099,1,1,330007,334506,335605,165701,12,164.306,168.805,169.904,28.411,274.405,520.415,246.026,492.02,738.014,ConInc
1,rea,cue,1,130518,rea_cue_run1_130518,I6,e,v,Con,l,1,1,yes,switch,red,green,green,Inc,2000,1,885,1,1,342005,346504,347389,165701,13,176.304,180.803,181.688,28.411,274.405,520.415,246.026,492.02,738.014,ConInc
1,rea,cue,1,130518,rea_cue_run1_130518,1B,o,c,Con,n,2,2,,switch,red,black,black,NoInc,2000,1,722,2,2,352803,357319,358041,165701,14,187.102,191.618,192.34,28.411,274.405,520.415,246.026,492.02,738.014,ConNoInc
1,rea,cue,1,130518,rea_cue_run1_130518,D4,e,c,InCon,n,1,2,yes,stay,red,green,green,Inc,2000,1,760,1,1,363618,368117,368877,165701,15,197.917,202.416,203.176,28.411,274.405,520.415,246.026,492.02,738.014,InConInc
1,rea,cue,1,130518,rea_cue_run1_130518,H5,o,c,Con,l,2,2,,switch,red,black,black,NoInc,4400,1,1804,2,2,374416,378916,380720,165701,16,208.715,213.215,215.019,28.411,274.405,520.415,246.026,492.02,738.014,ConNoInc
1,rea,cue,1,130518,rea_cue_run1_130518,1A,o,v,InCon,l,2,1,,stay,red,black,black,NoInc,4400,1,1389,1,1,387614,392114,393503,165701,17,221.913,226.413,227.802,28.411,274.405,520.415,246.026,492.02,738.014,InConNoInc
1,rea,cue,1,130518,rea_cue_run1_130518,2A,e,v,Con,n,1,1,,switch,red,black,black,NoInc,3200,1,1337,1,1,400812,405311,406648,165701,18,235.111,239.61,240.947,28.411,274.405,520.415,246.026,492.02,738.014,ConNoInc
1,rea,cue,1,130518,rea_cue_run1_130518,I6,e,v,Con,l,1,1,,,red,black,black,NoInc,4400,1,1305,1,1,442805,447305,448610,165701,19,277.104,281.604,282.909,28.411,274.405,520.415,246.026,492.02,738.014,ConNoInc
1,rea,cue,1,130518,rea_cue_run1_130518,D4,e,c,InCon,l,1,2,error,stay,red,green,green,Inc,3200,0,1327,1,2,456003,460519,461846,165701,20,290.302,294.818,296.145,28.411,274.405,520.415,246.026,492.02,738.014,InConInc
1,rea,cue,1,130518,rea_cue_run1_130518,3E,o,v,InCon,n,2,1,yes,switch,red,green,green,Inc,2000,1,1545,2,2,468018,472517,474062,165701,21,302.317,306.816,308.361,28.411,274.405,520.415,246.026,492.02,738.014,InConInc
1,rea,cue,1,130518,rea_cue_run1_130518,5H,o,c,Con,l,2,2,,switch,red,black,black,NoInc,3200,1,1229,2,2,478816,483316,484545,165701,22,313.115,317.615,318.844,28.411,274.405,520.415,246.026,492.02,738.014,ConNoInc
1,rea,cue,1,130518,rea_cue_run1_130518,A1,o,v,InCon,n,2,1,,switch,red,black,black,NoInc,2000,1,896,2,2,490814,495314,496210,165701,23,325.113,329.613,330.509,28.411,274.405,520.415,246.026,492.02,738.014,InConNoInc
1,rea,cue,1,130518,rea_cue_run1_130518,1B,o,c,Con,l,2,2,,switch,red,black,black,NoInc,4400,1,735,2,2,501613,506112,506847,165701,24,335.912,340.411,341.146,28.411,274.405,520.415,246.026,492.02,738.014,ConNoInc
1,rea,cue,1,130518,rea_cue_run1_130518,1B,o,c,Con,n,2,2,,switch,red,black,black,NoInc,4400,1,625,2,2,514811,519310,519935,165701,25,349.11,353.609,354.234,28.411,274.405,520.415,246.026,492.02,738.014,ConNoInc
1,rea,cue,1,130518,rea_cue_run1_130518,E3,o,v,InCon,n,2,1,yes,stay,red,green,green,Inc,2000,1,1248,2,2,528008,532508,533756,165701,26,362.307,366.807,368.055,28.411,274.405,520.415,246.026,492.02,738.014,InConInc
1,rea,cue,1,130518,rea_cue_run1_130518,A2,e,v,Con,n,1,1,,stay,red,black,black,NoInc,3200,1,2000,1,1,538807,543306,545306,165701,27,373.106,377.605,379.605,28.411,274.405,520.415,246.026,492.02,738.014,ConNoInc
1,rea,cue,1,130518,rea_cue_run1_130518,6I,e,v,Con,n,1,1,,stay,red,black,black,NoInc,4400,1,1394,1,1,550805,555304,556698,165701,28,385.104,389.603,390.997,28.411,274.405,520.415,246.026,492.02,738.014,ConNoInc
1,rea,cue,1,130518,rea_cue_run1_130518,3E,o,v,InCon,l,2,1,yes,switch,red,green,green,Inc,2000,1,1883,1,1,564003,568519,570402,165701,29,398.302,402.818,404.701,28.411,274.405,520.415,246.026,492.02,738.014,InConInc
1,rea,cue,1,130518,rea_cue_run1_130518,2A,e,v,Con,l,1,1,,stay,red,black,black,NoInc,3200,1,1392,1,1,574818,579317,580709,165701,30,409.117,413.616,415.008,28.411,274.405,520.415,246.026,492.02,738.014,ConNoInc
1,rea,cue,1,130518,rea_cue_run1_130518,5H,o,c,Con,n,2,2,yes,switch,red,green,green,Inc,2000,1,1024,2,2,586816,591315,592339,165701,31,421.115,425.614,426.638,28.411,274.405,520.415,246.026,492.02,738.014,ConInc
1,rea,cue,1,130518,rea_cue_run1_130518,2B,e,c,InCon,l,1,2,,switch,red,black,black,NoInc,4400,1,1398,2,2,597614,602113,603511,165701,32,431.913,436.412,437.81,28.411,274.405,520.415,246.026,492.02,738.014,InConNoInc
1,rea,cue,1,130518,rea_cue_run1_130518,B1,o,c,Con,l,2,2,,stay,red,black,black,NoInc,2000,1,1032,2,2,610812,615311,616343,165701,33,445.111,449.61,450.642,28.411,274.405,520.415,246.026,492.02,738.014,ConNoInc
1,rea,cue,1,130518,rea_cue_run1_130518,2A,e,v,Con,n,1,1,,switch,red,black,black,NoInc,3200,1,947,1,1,621610,626109,627056,165701,34,455.909,460.408,461.355,28.411,274.405,520.415,246.026,492.02,738.014,ConNoInc
1,rea,cue,1,130518,rea_cue_run1_130518,2A,e,v,Con,l,1,1,,switch,red,black,black,NoInc,4400,1,1417,1,1,633608,638107,639524,165701,35,467.907,472.406,473.823,28.411,274.405,520.415,246.026,492.02,738.014,ConNoInc
1,rea,cue,1,130518,rea_cue_run1_130518,E3,o,v,InCon,n,2,1,yes,switch,red,green,green,Inc,3200,1,1042,2,2,646806,651305,652347,165701,36,481.105,485.604,486.646,28.411,274.405,520.415,246.026,492.02,738.014,InConInc
1,rea,cue,1,130518,rea_cue_run1_130518,1A,o,v,InCon,n,2,1,,,red,black,black,NoInc,3200,1,1401,2,2,688816,693315,694716,165701,37,523.115,527.614,529.015,28.411,274.405,520.415,246.026,492.02,738.014,InConNoInc
1,rea,cue,1,130518,rea_cue_run1_130518,E3,o,v,InCon,l,2,1,yes,switch,red,green,green,Inc,4400,1,2097,1,1,700814,705313,707410,165701,38,535.113,539.612,541.709,28.411,274.405,520.415,246.026,492.02,738.014,InConInc
1,rea,cue,1,130518,rea_cue_run1_130518,6I,e,v,Con,n,1,1,,switch,red,black,black,NoInc,4400,1,1549,1,1,714012,718511,720060,165701,39,548.311,552.81,554.359,28.411,274.405,520.415,246.026,492.02,738.014,ConNoInc
1,rea,cue,1,130518,rea_cue_run1_130518,H5,o,c,Con,n,2,2,,stay,red,black,black,NoInc,2000,1,929,2,2,727210,731709,732638,165701,40,561.509,566.008,566.937,28.411,274.405,520.415,246.026,492.02,738.014,ConNoInc
1,rea,cue,1,130518,rea_cue_run1_130518,4D,e,c,InCon,n,1,2,yes,stay,red,green,green,Inc,2000,1,1299,1,1,738008,742507,743806,165701,41,572.307,576.806,578.105,28.411,274.405,520.415,246.026,492.02,738.014,InConInc
1,rea,cue,1,130518,rea_cue_run1_130518,H5,o,c,Con,l,2,2,yes,switch,red,green,green,Inc,2000,1,996,2,2,748806,753306,754302,165701,42,583.105,587.605,588.601,28.411,274.405,520.415,246.026,492.02,738.014,ConInc
1,rea,cue,1,130518,rea_cue_run1_130518,A2,e,v,Con,n,1,1,,switch,red,black,black,NoInc,3200,1,1252,1,1,759605,764104,765356,165701,43,593.904,598.403,599.655,28.411,274.405,520.415,246.026,492.02,738.014,ConNoInc
1,rea,cue,1,130518,rea_cue_run1_130518,2A,e,v,Con,l,1,1,,switch,red,black,black,NoInc,3200,1,1012,1,1,771603,776119,777131,165701,44,605.902,610.418,611.43,28.411,274.405,520.415,246.026,492.02,738.014,ConNoInc
1,rea,cue,1,130518,rea_cue_run1_130518,1B,o,c,Con,n,2,2,,switch,red,black,black,NoInc,4400,1,998,2,2,783617,788117,789115,165701,45,617.916,622.416,623.414,28.411,274.405,520.415,246.026,492.02,738.014,ConNoInc
1,rea,cue,1,130518,rea_cue_run1_130518,4D,e,c,InCon,l,1,2,yes,switch,red,green,green,Inc,4400,1,2495,2,2,796815,801315,803810,165701,46,631.114,635.614,638.109,28.411,274.405,520.415,246.026,492.02,738.014,InConInc
1,rea,cue,1,130518,rea_cue_run1_130518,B1,o,c,Con,l,2,2,,stay,red,black,black,NoInc,2000,1,2096,2,2,810013,814513,816609,165701,47,644.312,648.812,650.908,28.411,274.405,520.415,246.026,492.02,738.014,ConNoInc
1,rea,cue,1,130518,rea_cue_run1_130518,2A,e,v,Con,n,1,1,,switch,red,black,black,NoInc,2000,1,1044,1,1,820812,825311,826355,165701,48,655.111,659.61,660.654,28.411,274.405,520.415,246.026,492.02,738.014,ConNoInc
1,rea,cue,1,130518,rea_cue_run1_130518,6I,e,v,Con,l,1,1,,switch,red,black,black,NoInc,3200,1,1219,1,1,831610,836109,837328,165701,49,665.909,670.408,671.627,28.411,274.405,520.415,246.026,492.02,738.014,ConNoInc
1,rea,cue,1,130518,rea_cue_run1_130518,A2,e,v,Con,l,1,1,,stay,red,black,black,NoInc,3200,1,2031,1,1,843608,848107,850138,165701,50,677.907,682.406,684.437,28.411,274.405,520.415,246.026,492.02,738.014,ConNoInc
1,rea,cue,1,130518,rea_cue_run1_130518,3E,o,v,InCon,l,2,1,yes,stay,red,green,green,Inc,3200,1,1250,1,1,855606,860105,861355,165701,51,689.905,694.404,695.654,28.411,274.405,520.415,246.026,492.02,738.014,InConInc
1,rea,cue,1,130518,rea_cue_run1_130518,1B,o,c,Con,l,2,2,,stay,red,black,black,NoInc,4400,1,1213,2,2,867604,872103,873316,165701,52,701.903,706.402,707.615,28.411,274.405,520.415,246.026,492.02,738.014,ConNoInc
1,rea,cue,1,130518,rea_cue_run1_130518,B1,o,c,Con,n,2,2,,switch,red,black,black,NoInc,4400,1,1091,2,2,880819,885318,886409,165701,53,715.118,719.617,720.708,28.411,274.405,520.415,246.026,492.02,738.014,ConNoInc
1,rea,cue,1,130518,rea_cue_run1_130518,3E,o,v,InCon,n,2,1,yes,stay,red,green,green,Inc,2000,1,2468,2,2,894016,898516,900984,165701,54,728.315,732.815,735.283,28.411,274.405,520.415,246.026,492.02,738.014,InConInc
1,rea,cue,2,130518,rea_cue_run2_130518,2A,e,v,Con,l,1,1,,,red,black,black,NoInc,4400,1,1295,1,1,65502,70002,71297,34390,1,31.112,35.612,36.907,28.413,274.423,520.417,246.028,492.022,738.032,ConNoInc
1,rea,cue,2,130518,rea_cue_run2_130518,H5,o,c,Con,l,2,2,,stay,red,black,black,NoInc,2000,1,747,2,2,78717,83216,83963,34390,2,44.327,48.826,49.573,28.413,274.423,520.417,246.028,492.022,738.032,ConNoInc
1,rea,cue,2,130518,rea_cue_run2_130518,1B,o,c,Con,l,2,2,,stay,red,black,black,NoInc,2000,1,768,2,2,89515,94014,94782,34390,3,55.125,59.624,60.392,28.413,274.423,520.417,246.028,492.022,738.032,ConNoInc
1,rea,cue,2,130518,rea_cue_run2_130518,1B,o,c,Con,n,2,2,,switch,red,black,black,NoInc,4400,1,793,2,2,100313,104813,105606,34390,4,65.923,70.423,71.216,28.413,274.423,520.417,246.028,492.022,738.032,ConNoInc
1,rea,cue,2,130518,rea_cue_run2_130518,B2,e,c,InCon,l,1,2,,switch,red,black,black,NoInc,3200,1,964,2,2,113511,118011,118975,34390,5,79.121,83.621,84.585,28.413,274.423,520.417,246.028,492.022,738.032,InConNoInc
1,rea,cue,2,130518,rea_cue_run2_130518,5H,o,c,Con,n,2,2,,switch,red,black,black,NoInc,3200,1,1639,2,2,125509,130009,131648,34390,6,91.119,95.619,97.258,28.413,274.423,520.417,246.028,492.022,738.032,ConNoInc
1,rea,cue,2,130518,rea_cue_run2_130518,A2,e,v,Con,l,1,1,,switch,red,black,black,NoInc,4400,1,799,1,1,137507,142007,142806,34390,7,103.117,107.617,108.416,28.413,274.423,520.417,246.028,492.022,738.032,ConNoInc
1,rea,cue,2,130518,rea_cue_run2_130518,6I,e,v,Con,l,1,1,yes,stay,red,green,green,Inc,2000,1,693,1,1,150705,155205,155898,34390,8,116.315,120.815,121.508,28.413,274.423,520.417,246.028,492.022,738.032,ConInc
1,rea,cue,2,130518,rea_cue_run2_130518,E3,o,v,InCon,l,2,1,yes,stay,red,green,green,Inc,3200,1,815,1,1,161504,166003,166818,34390,9,127.114,131.613,132.428,28.413,274.423,520.417,246.028,492.022,738.032,InConInc
1,rea,cue,2,130518,rea_cue_run2_130518,A2,e,v,Con,n,1,1,,switch,red,black,black,NoInc,2000,1,1374,1,1,173502,178001,179375,34390,10,139.112,143.611,144.985,28.413,274.423,520.417,246.028,492.022,738.032,ConNoInc
1,rea,cue,2,130518,rea_cue_run2_130518,4D,e,c,InCon,l,1,2,error,switch,red,green,green,Inc,4400,0,819,1,2,184317,188816,189635,34390,11,149.927,154.426,155.245,28.413,274.423,520.417,246.028,492.022,738.032,InConInc
1,rea,cue,2,130518,rea_cue_run2_130518,6I,e,v,Con,n,1,1,,switch,red,black,black,NoInc,2000,1,1348,1,1,197515,202014,203362,34390,12,163.125,167.624,168.972,28.413,274.423,520.417,246.028,492.022,738.032,ConNoInc
1,rea,cue,2,130518,rea_cue_run2_130518,B1,o,c,Con,n,2,2,,stay,red,black,black,NoInc,3200,1,901,2,2,208313,212812,213713,34390,13,173.923,178.422,179.323,28.413,274.423,520.417,246.028,492.022,738.032,ConNoInc
1,rea,cue,2,130518,rea_cue_run2_130518,3E,o,v,InCon,n,2,1,yes,stay,red,green,green,Inc,2000,1,1399,2,2,220311,224810,226209,34390,14,185.921,190.42,191.819,28.413,274.423,520.417,246.028,492.022,738.032,InConInc
1,rea,cue,2,130518,rea_cue_run2_130518,E3,o,v,InCon,n,2,1,yes,stay,red,green,green,Inc,4400,1,1549,2,2,231109,235608,237157,34390,15,196.719,201.218,202.767,28.413,274.423,520.417,246.028,492.022,738.032,InConInc
1,rea,cue,2,130518,rea_cue_run2_130518,2A,e,v,Con,n,1,1,,stay,red,black,black,NoInc,4400,1,836,1,1,244307,248806,249642,34390,16,209.917,214.416,215.252,28.413,274.423,520.417,246.028,492.022,738.032,ConNoInc
1,rea,cue,2,130518,rea_cue_run2_130518,D4,e,c,InCon,n,1,2,yes,stay,red,green,green,Inc,3200,1,1057,1,1,257505,262004,263061,34390,17,223.115,227.614,228.671,28.413,274.423,520.417,246.028,492.022,738.032,InConInc
1,rea,cue,2,130518,rea_cue_run2_130518,B1,o,c,Con,l,2,2,,switch,red,black,black,NoInc,3200,1,975,2,2,269503,274002,274977,34390,18,235.113,239.612,240.587,28.413,274.423,520.417,246.028,492.022,738.032,ConNoInc
1,rea,cue,2,130518,rea_cue_run2_130518,D4,e,c,InCon,n,1,2,yes,,red,green,green,Inc,2000,1,958,1,1,311513,316012,316970,34390,19,277.123,281.622,282.58,28.413,274.423,520.417,246.028,492.022,738.032,InConInc
1,rea,cue,2,130518,rea_cue_run2_130518,I6,e,v,Con,l,1,1,,switch,red,black,black,NoInc,4400,1,1322,1,1,322311,326810,328132,34390,20,287.921,292.42,293.742,28.413,274.423,520.417,246.028,492.022,738.032,ConNoInc
1,rea,cue,2,130518,rea_cue_run2_130518,A2,e,v,Con,l,1,1,,stay,red,black,black,NoInc,2000,1,770,1,1,335509,340008,340778,34390,21,301.119,305.618,306.388,28.413,274.423,520.417,246.028,492.022,738.032,ConNoInc
1,rea,cue,2,130518,rea_cue_run2_130518,I6,e,v,Con,n,1,1,yes,switch,red,green,green,Inc,3200,1,955,1,1,346307,350807,351762,34390,22,311.917,316.417,317.372,28.413,274.423,520.417,246.028,492.022,738.032,ConInc
1,rea,cue,2,130518,rea_cue_run2_130518,A2,e,v,Con,n,1,1,,stay,red,black,black,NoInc,3200,1,1203,1,1,358305,362805,364008,34390,23,323.915,328.415,329.618,28.413,274.423,520.417,246.028,492.022,738.032,ConNoInc
1,rea,cue,2,130518,rea_cue_run2_130518,2B,e,c,InCon,n,1,2,,stay,red,black,black,NoInc,4400,1,967,1,1,370303,374803,375770,34390,24,335.913,340.413,341.38,28.413,274.423,520.417,246.028,492.022,738.032,InConNoInc
1,rea,cue,2,130518,rea_cue_run2_130518,B1,o,c,Con,l,2,2,,switch,red,black,black,NoInc,3200,1,1159,2,2,383501,388017,389176,34390,25,349.111,353.627,354.786,28.413,274.423,520.417,246.028,492.022,738.032,ConNoInc
1,rea,cue,2,130518,rea_cue_run2_130518,4D,e,c,InCon,n,1,2,yes,switch,red,green,green,Inc,4400,1,809,1,1,395516,400015,400824,34390,26,361.126,365.625,366.434,28.413,274.423,520.417,246.028,492.022,738.032,InConInc
1,rea,cue,2,130518,rea_cue_run2_130518,2A,e,v,Con,n,1,1,,stay,red,black,black,NoInc,2000,1,988,1,1,408714,413213,414201,34390,27,374.324,378.823,379.811,28.413,274.423,520.417,246.028,492.022,738.032,ConNoInc
1,rea,cue,2,130518,rea_cue_run2_130518,5H,o,c,Con,l,2,2,yes,switch,red,green,green,Inc,3200,1,1352,2,2,419512,424012,425364,34390,28,385.122,389.622,390.974,28.413,274.423,520.417,246.028,492.022,738.032,ConInc
1,rea,cue,2,130518,rea_cue_run2_130518,H5,o,c,Con,l,2,2,,stay,red,black,black,NoInc,2000,1,1057,2,2,431510,436010,437067,34390,29,397.12,401.62,402.677,28.413,274.423,520.417,246.028,492.022,738.032,ConNoInc
1,rea,cue,2,130518,rea_cue_run2_130518,1A,o,v,InCon,n,2,1,,switch,red,black,black,NoInc,4400,1,1846,2,2,442309,446808,448654,34390,30,407.919,412.418,414.264,28.413,274.423,520.417,246.028,492.022,738.032,InConNoInc
1,rea,cue,2,130518,rea_cue_run2_130518,2A,e,v,Con,l,1,1,,switch,red,black,black,NoInc,4400,1,1233,1,1,455506,460006,461239,34390,31,421.116,425.616,426.849,28.413,274.423,520.417,246.028,492.022,738.032,ConNoInc
1,rea,cue,2,130518,rea_cue_run2_130518,3E,o,v,InCon,l,2,1,yes,stay,red,green,green,Inc,2000,1,1190,1,1,468704,473204,474394,34390,32,434.314,438.814,440.004,28.413,274.423,520.417,246.028,492.022,738.032,InConInc
1,rea,cue,2,130518,rea_cue_run2_130518,D4,e,c,InCon,l,1,2,yes,stay,red,green,green,Inc,3200,1,1522,2,2,479503,484002,485524,34390,33,445.113,449.612,451.134,28.413,274.423,520.417,246.028,492.022,738.032,InConInc
1,rea,cue,2,130518,rea_cue_run2_130518,B1,o,c,Con,n,2,2,,switch,red,black,black,NoInc,4400,1,2804,2,2,491501,496017,498821,34390,34,457.111,461.627,464.431,28.413,274.423,520.417,246.028,492.022,738.032,ConNoInc
1,rea,cue,2,130518,rea_cue_run2_130518,1B,o,c,Con,l,2,2,,switch,red,black,black,NoInc,3200,1,1212,2,2,504715,509215,510427,34390,35,470.325,474.825,476.037,28.413,274.423,520.417,246.028,492.022,738.032,ConNoInc
1,rea,cue,2,130518,rea_cue_run2_130518,I6,e,v,Con,n,1,1,,switch,red,black,black,NoInc,2000,1,1129,1,1,516713,521213,522342,34390,36,482.323,486.823,487.952,28.413,274.423,520.417,246.028,492.022,738.032,ConNoInc
1,rea,cue,2,130518,rea_cue_run2_130518,A2,e,v,Con,n,1,1,,,red,black,black,NoInc,4400,1,853,1,1,557507,562006,562859,34390,37,523.117,527.616,528.469,28.413,274.423,520.417,246.028,492.022,738.032,ConNoInc
1,rea,cue,2,130518,rea_cue_run2_130518,3E,o,v,InCon,n,2,1,yes,stay,red,green,green,Inc,3200,1,1207,2,2,570705,575204,576411,34390,38,536.315,540.814,542.021,28.413,274.423,520.417,246.028,492.022,738.032,InConInc
1,rea,cue,2,130518,rea_cue_run2_130518,4D,e,c,InCon,l,1,2,yes,switch,red,green,green,Inc,4400,1,1172,2,2,582703,587202,588374,34390,39,548.313,552.812,553.984,28.413,274.423,520.417,246.028,492.022,738.032,InConInc
1,rea,cue,2,130518,rea_cue_run2_130518,H5,o,c,Con,n,2,2,yes,switch,red,green,green,Inc,2000,1,980,2,2,595901,600417,601397,34390,40,561.511,566.027,567.007,28.413,274.423,520.417,246.028,492.022,738.032,ConInc
1,rea,cue,2,130518,rea_cue_run2_130518,B1,o,c,Con,n,2,2,,stay,red,black,black,NoInc,2000,1,1346,2,2,606716,611215,612561,34390,41,572.326,576.825,578.171,28.413,274.423,520.417,246.028,492.022,738.032,ConNoInc
1,rea,cue,2,130518,rea_cue_run2_130518,1B,o,c,Con,n,2,2,,stay,red,black,black,NoInc,3200,1,1038,2,2,617514,622013,623051,34390,42,583.124,587.623,588.661,28.413,274.423,520.417,246.028,492.022,738.032,ConNoInc
1,rea,cue,2,130518,rea_cue_run2_130518,5H,o,c,Con,n,2,2,,stay,red,black,black,NoInc,4400,1,884,2,2,629512,634011,634895,34390,43,595.122,599.621,600.505,28.413,274.423,520.417,246.028,492.022,738.032,ConNoInc
1,rea,cue,2,130518,rea_cue_run2_130518,E3,o,v,InCon,l,2,1,yes,switch,red,green,green,Inc,2000,1,1020,1,1,642710,647209,648229,34390,44,608.32,612.819,613.839,28.413,274.423,520.417,246.028,492.022,738.032,InConInc
1,rea,cue,2,130518,rea_cue_run2_130518,2B,e,c,InCon,l,1,2,,stay,red,black,black,NoInc,3200,1,1122,2,2,653508,658007,659129,34390,45,619.118,623.617,624.739,28.413,274.423,520.417,246.028,492.022,738.032,InConNoInc
1,rea,cue,2,130518,rea_cue_run2_130518,2A,e,v,Con,n,1,1,,switch,red,black,black,NoInc,2000,1,1455,1,1,665506,670005,671460,34390,46,631.116,635.615,637.07,28.413,274.423,520.417,246.028,492.022,738.032,ConNoInc
1,rea,cue,2,130518,rea_cue_run2_130518,B1,o,c,Con,l,2,2,,switch,red,black,black,NoInc,2000,1,1071,2,2,676304,680804,681875,34390,47,641.914,646.414,647.485,28.413,274.423,520.417,246.028,492.022,738.032,ConNoInc
1,rea,cue,2,130518,rea_cue_run2_130518,A1,o,v,InCon,l,2,1,,stay,red,black,black,NoInc,2000,1,1492,1,1,687103,691602,693094,34390,48,652.713,657.212,658.704,28.413,274.423,520.417,246.028,492.022,738.032,InConNoInc
1,rea,cue,2,130518,rea_cue_run2_130518,6I,e,v,Con,n,1,1,,switch,red,black,black,NoInc,4400,1,880,1,1,697901,702417,703297,34390,49,663.511,668.027,668.907,28.413,274.423,520.417,246.028,492.022,738.032,ConNoInc
1,rea,cue,2,130518,rea_cue_run2_130518,4D,e,c,InCon,n,1,2,yes,stay,red,green,green,Inc,3200,1,977,1,1,711116,715615,716592,34390,50,676.726,681.225,682.202,28.413,274.423,520.417,246.028,492.022,738.032,InConInc
1,rea,cue,2,130518,rea_cue_run2_130518,H5,o,c,Con,l,2,2,,switch,red,black,black,NoInc,3200,1,1690,2,2,723114,727613,729303,34390,51,688.724,693.223,694.913,28.413,274.423,520.417,246.028,492.022,738.032,ConNoInc
1,rea,cue,2,130518,rea_cue_run2_130518,1B,o,c,Con,l,2,2,,stay,red,black,black,NoInc,4400,1,682,2,2,735112,739611,740293,34390,52,700.722,705.221,705.903,28.413,274.423,520.417,246.028,492.022,738.032,ConNoInc
1,rea,cue,2,130518,rea_cue_run2_130518,D4,e,c,InCon,l,1,2,yes,stay,red,green,green,Inc,3200,1,1250,2,2,748310,752809,754059,34390,53,713.92,718.419,719.669,28.413,274.423,520.417,246.028,492.022,738.032,InConInc
1,rea,cue,2,130518,rea_cue_run2_130518,A2,e,v,Con,l,1,1,,stay,red,black,black,NoInc,4400,1,760,1,1,760308,764807,765567,34390,54,725.918,730.417,731.177,28.413,274.423,520.417,246.028,492.022,738.032,ConNoInc
1,bas,cue,1,155938,bas_cue_run1_155938,I6,e,v,Con,l,1,1,,,red,black,green,Inc,2000,1,1676,1,1,149588,154087,155763,118478,1,31.11,35.609,37.285,28.41,274.421,520.416,246.026,492.02,738.015,ConInc
1,bas,cue,1,155938,bas_cue_run1_155938,A2,e,v,Con,l,1,1,,stay,red,black,black,NoInc,3200,1,974,1,1,160386,164885,165859,118478,2,41.908,46.407,47.381,28.41,274.421,520.416,246.026,492.02,738.015,ConNoInc
1,bas,cue,1,155938,bas_cue_run1_155938,H5,o,c,Con,l,2,2,,stay,red,black,black,NoInc,3200,1,551,2,2,172384,176883,177434,118478,3,53.906,58.405,58.956,28.41,274.421,520.416,246.026,492.02,738.015,ConNoInc
1,bas,cue,1,155938,bas_cue_run1_155938,B1,o,c,Con,l,2,2,,stay,red,black,black,NoInc,4400,1,1255,2,2,184382,188898,190153,118478,4,65.904,70.42,71.675,28.41,274.421,520.416,246.026,492.02,738.015,ConNoInc
1,bas,cue,1,155938,bas_cue_run1_155938,D4,e,c,InCon,n,1,2,,switch,red,black,green,Inc,4400,1,1541,1,1,197597,202096,203637,118478,5,79.119,83.618,85.159,28.41,274.421,520.416,246.026,492.02,738.015,InConInc
1,bas,cue,1,155938,bas_cue_run1_155938,B2,e,c,InCon,n,1,2,,stay,red,black,black,NoInc,4400,1,950,1,1,210795,215294,216244,118478,6,92.317,96.816,97.766,28.41,274.421,520.416,246.026,492.02,738.015,InConNoInc
1,bas,cue,1,155938,bas_cue_run1_155938,1A,o,v,InCon,l,2,1,,switch,red,black,black,NoInc,3200,1,1725,1,1,223993,228492,230217,118478,7,105.515,110.014,111.739,28.41,274.421,520.416,246.026,492.02,738.015,InConNoInc
1,bas,cue,1,155938,bas_cue_run1_155938,B1,o,c,Con,n,2,2,,switch,red,black,black,NoInc,2000,1,1389,2,2,235991,240490,241879,118478,8,117.513,122.012,123.401,28.41,274.421,520.416,246.026,492.02,738.015,ConNoInc
1,bas,cue,1,155938,bas_cue_run1_155938,I6,e,v,Con,n,1,1,,stay,red,black,black,NoInc,2000,1,1465,1,1,246789,251288,252753,118478,9,128.311,132.81,134.275,28.41,274.421,520.416,246.026,492.02,738.015,ConNoInc
1,bas,cue,1,155938,bas_cue_run1_155938,1B,o,c,Con,l,2,2,,switch,red,black,black,NoInc,3200,1,635,2,2,257587,262087,262722,118478,10,139.109,143.609,144.244,28.41,274.421,520.416,246.026,492.02,738.015,ConNoInc
1,bas,cue,1,155938,bas_cue_run1_155938,A2,e,v,Con,n,1,1,,switch,red,black,black,NoInc,2000,1,1087,1,1,269585,274085,275172,118478,11,151.107,155.607,156.694,28.41,274.421,520.416,246.026,492.02,738.015,ConNoInc
1,bas,cue,1,155938,bas_cue_run1_155938,2A,e,v,Con,n,1,1,,stay,red,black,black,NoInc,3200,1,1281,1,1,280384,284883,286164,118478,12,161.906,166.405,167.686,28.41,274.421,520.416,246.026,492.02,738.015,ConNoInc
1,bas,cue,1,155938,bas_cue_run1_155938,6I,e,v,Con,n,1,1,,stay,red,black,green,Inc,4400,1,1090,1,1,292382,296898,297988,118478,13,173.904,178.42,179.51,28.41,274.421,520.416,246.026,492.02,738.015,ConInc
1,bas,cue,1,155938,bas_cue_run1_155938,4D,e,c,InCon,n,1,2,,stay,red,black,green,Inc,3200,1,919,1,1,305596,310096,311015,118478,14,187.118,191.618,192.537,28.41,274.421,520.416,246.026,492.02,738.015,InConInc
1,bas,cue,1,155938,bas_cue_run1_155938,D4,e,c,InCon,l,1,2,,switch,red,black,green,Inc,2000,1,1031,2,2,317594,322094,323125,118478,15,199.116,203.616,204.647,28.41,274.421,520.416,246.026,492.02,738.015,InConInc
1,bas,cue,1,155938,bas_cue_run1_155938,E3,o,v,InCon,l,2,1,,stay,red,black,green,Inc,4400,1,711,1,1,328393,332892,333603,118478,16,209.915,214.414,215.125,28.41,274.421,520.416,246.026,492.02,738.015,InConInc
1,bas,cue,1,155938,bas_cue_run1_155938,5H,o,c,Con,l,2,2,,stay,red,black,black,NoInc,2000,1,965,2,2,341591,346090,347055,118478,17,223.113,227.612,228.577,28.41,274.421,520.416,246.026,492.02,738.015,ConNoInc
1,bas,cue,1,155938,bas_cue_run1_155938,1B,o,c,Con,n,2,2,,switch,red,black,black,NoInc,4400,1,1259,2,2,352389,356888,358147,118478,18,233.911,238.41,239.669,28.41,274.421,520.416,246.026,492.02,738.015,ConNoInc
1,bas,cue,1,155938,bas_cue_run1_155938,2A,e,v,Con,l,1,1,,,red,black,black,NoInc,3200,1,1704,1,1,395582,400098,401802,118478,19,277.104,281.62,283.324,28.41,274.421,520.416,246.026,492.02,738.015,ConNoInc
1,bas,cue,1,155938,bas_cue_run1_155938,2A,e,v,Con,n,1,1,,switch,red,black,black,NoInc,2000,1,1227,1,1,407597,412096,413323,118478,20,289.119,293.618,294.845,28.41,274.421,520.416,246.026,492.02,738.015,ConNoInc
1,bas,cue,1,155938,bas_cue_run1_155938,1B,o,c,Con,l,2,2,,switch,red,black,black,NoInc,4400,1,974,2,2,418395,422894,423868,118478,21,299.917,304.416,305.39,28.41,274.421,520.416,246.026,492.02,738.015,ConNoInc
1,bas,cue,1,155938,bas_cue_run1_155938,B1,o,c,Con,l,2,2,,stay,red,black,black,NoInc,4400,1,698,2,2,431593,436092,436790,118478,22,313.115,317.614,318.312,28.41,274.421,520.416,246.026,492.02,738.015,ConNoInc
1,bas,cue,1,155938,bas_cue_run1_155938,3E,o,v,InCon,n,2,1,,switch,red,black,green,Inc,2000,1,1370,2,2,444791,449290,450660,118478,23,326.313,330.812,332.182,28.41,274.421,520.416,246.026,492.02,738.015,InConInc
1,bas,cue,1,155938,bas_cue_run1_155938,2B,e,c,InCon,l,1,2,,switch,red,black,black,NoInc,4400,1,1493,2,2,455589,460089,461582,118478,24,337.111,341.611,343.104,28.41,274.421,520.416,246.026,492.02,738.015,InConNoInc
1,bas,cue,1,155938,bas_cue_run1_155938,D4,e,c,InCon,l,1,2,,stay,red,black,green,Inc,2000,1,725,2,2,468787,473286,474011,118478,25,350.309,354.808,355.533,28.41,274.421,520.416,246.026,492.02,738.015,InConInc
1,bas,cue,1,155938,bas_cue_run1_155938,5H,o,c,Con,n,2,2,,switch,red,black,green,Inc,3200,1,978,2,2,479585,484085,485063,118478,26,361.107,365.607,366.585,28.41,274.421,520.416,246.026,492.02,738.015,ConInc
1,bas,cue,1,155938,bas_cue_run1_155938,6I,e,v,Con,n,1,1,,stay,red,black,black,NoInc,3200,1,1031,1,1,491584,496083,497114,118478,27,373.106,377.605,378.636,28.41,274.421,520.416,246.026,492.02,738.015,ConNoInc
1,bas,cue,1,155938,bas_cue_run1_155938,E3,o,v,InCon,n,2,1,,stay,red,black,green,Inc,4400,1,1094,2,2,503582,508098,509192,118478,28,385.104,389.62,390.714,28.41,274.421,520.416,246.026,492.02,738.015,InConInc
1,bas,cue,1,155938,bas_cue_run1_155938,A1,o,v,InCon,n,2,1,,stay,red,black,black,NoInc,2000,1,973,2,2,516796,521296,522269,118478,29,398.318,402.818,403.791,28.41,274.421,520.416,246.026,492.02,738.015,InConNoInc
1,bas,cue,1,155938,bas_cue_run1_155938,E3,o,v,InCon,n,2,1,,stay,red,black,green,Inc,3200,1,922,2,2,527595,532094,533016,118478,30,409.117,413.616,414.538,28.41,274.421,520.416,246.026,492.02,738.015,InConInc
1,bas,cue,1,155938,bas_cue_run1_155938,1B,o,c,Con,n,2,2,,stay,red,black,black,NoInc,4400,1,1181,2,2,539593,544092,545273,118478,31,421.115,425.614,426.795,28.41,274.421,520.416,246.026,492.02,738.015,ConNoInc
1,bas,cue,1,155938,bas_cue_run1_155938,3E,o,v,InCon,l,2,1,,switch,red,black,green,Inc,3200,1,1637,1,1,552791,557290,558927,118478,32,434.313,438.812,440.449,28.41,274.421,520.416,246.026,492.02,738.015,InConInc
1,bas,cue,1,155938,bas_cue_run1_155938,A2,e,v,Con,n,1,1,,switch,red,black,black,NoInc,2000,1,1145,1,1,564789,569288,570433,118478,33,446.311,450.81,451.955,28.41,274.421,520.416,246.026,492.02,738.015,ConNoInc
1,bas,cue,1,155938,bas_cue_run1_155938,I6,e,v,Con,l,1,1,,switch,red,black,black,NoInc,4400,1,1037,1,1,575587,580086,581123,118478,34,457.109,461.608,462.645,28.41,274.421,520.416,246.026,492.02,738.015,ConNoInc
1,bas,cue,1,155938,bas_cue_run1_155938,5H,o,c,Con,l,2,2,,stay,red,black,black,NoInc,2000,1,888,2,2,588785,593284,594172,118478,35,470.307,474.806,475.694,28.41,274.421,520.416,246.026,492.02,738.015,ConNoInc
1,bas,cue,1,155938,bas_cue_run1_155938,2A,e,v,Con,l,1,1,,stay,red,black,black,NoInc,3200,1,867,1,1,599583,604082,604949,118478,36,481.105,485.604,486.471,28.41,274.421,520.416,246.026,492.02,738.015,ConNoInc
1,bas,cue,1,155938,bas_cue_run1_155938,1A,o,v,InCon,n,2,1,,,red,black,black,NoInc,3200,1,1190,2,2,641593,646092,647282,118478,37,523.115,527.614,528.804,28.41,274.421,520.416,246.026,492.02,738.015,InConNoInc
1,bas,cue,1,155938,bas_cue_run1_155938,A2,e,v,Con,l,1,1,,switch,red,black,black,NoInc,2000,1,1380,1,1,653591,658091,659471,118478,38,535.113,539.613,540.993,28.41,274.421,520.416,246.026,492.02,738.015,ConNoInc
1,bas,cue,1,155938,bas_cue_run1_155938,B1,o,c,Con,n,2,2,,switch,red,black,black,NoInc,2000,1,1171,2,2,664390,668889,670060,118478,39,545.912,550.411,551.582,28.41,274.421,520.416,246.026,492.02,738.015,ConNoInc
1,bas,cue,1,155938,bas_cue_run1_155938,4D,e,c,InCon,n,1,2,,stay,red,black,green,Inc,4400,1,1319,1,1,675188,679687,681006,118478,40,556.71,561.209,562.528,28.41,274.421,520.416,246.026,492.02,738.015,InConInc
1,bas,cue,1,155938,bas_cue_run1_155938,6I,e,v,Con,l,1,1,,switch,red,black,black,NoInc,4400,1,1541,1,1,688386,692885,694426,118478,41,569.908,574.407,575.948,28.41,274.421,520.416,246.026,492.02,738.015,ConNoInc
1,bas,cue,1,155938,bas_cue_run1_155938,2A,e,v,Con,l,1,1,,stay,red,black,black,NoInc,3200,1,971,1,1,701584,706083,707054,118478,42,583.106,587.605,588.576,28.41,274.421,520.416,246.026,492.02,738.015,ConNoInc
1,bas,cue,1,155938,bas_cue_run1_155938,6I,e,v,Con,n,1,1,,switch,red,black,black,NoInc,2000,0,0,,1,713582,718098,0,118478,43,595.104,599.62,-118.478,28.41,274.421,520.416,246.026,492.02,738.015,ConNoInc
1,bas,cue,1,155938,bas_cue_run1_155938,B1,o,c,Con,l,2,2,,switch,red,black,black,NoInc,3200,1,1243,2,2,724397,728896,730139,118478,44,605.919,610.418,611.661,28.41,274.421,520.416,246.026,492.02,738.015,ConNoInc
1,bas,cue,1,155938,bas_cue_run1_155938,E3,o,v,InCon,l,2,1,,stay,red,black,green,Inc,4400,1,1172,1,1,736395,740894,742066,118478,45,617.917,622.416,623.588,28.41,274.421,520.416,246.026,492.02,738.015,InConInc
1,bas,cue,1,155938,bas_cue_run1_155938,4D,e,c,InCon,l,1,2,,stay,red,black,green,Inc,3200,1,860,2,2,749593,754092,754952,118478,46,631.115,635.614,636.474,28.41,274.421,520.416,246.026,492.02,738.015,InConInc
1,bas,cue,1,155938,bas_cue_run1_155938,1B,o,c,Con,l,2,2,,stay,red,black,black,NoInc,2000,1,728,2,2,761591,766090,766818,118478,47,643.113,647.612,648.34,28.41,274.421,520.416,246.026,492.02,738.015,ConNoInc
1,bas,cue,1,155938,bas_cue_run1_155938,1B,o,c,Con,n,2,2,,switch,red,black,black,NoInc,3200,1,1149,2,2,772389,776888,778037,118478,48,653.911,658.41,659.559,28.41,274.421,520.416,246.026,492.02,738.015,ConNoInc
1,bas,cue,1,155938,bas_cue_run1_155938,3E,o,v,InCon,n,2,1,,stay,red,black,green,Inc,2000,1,1249,2,2,784387,788887,790136,118478,49,665.909,670.409,671.658,28.41,274.421,520.416,246.026,492.02,738.015,InConInc
1,bas,cue,1,155938,bas_cue_run1_155938,2A,e,v,Con,n,1,1,,stay,red,black,black,NoInc,4400,1,909,1,1,795186,799685,800594,118478,50,676.708,681.207,682.116,28.41,274.421,520.416,246.026,492.02,738.015,ConNoInc
1,bas,cue,1,155938,bas_cue_run1_155938,H5,o,c,Con,l,2,2,,switch,red,black,green,Inc,4400,1,1342,2,2,808383,812883,814225,118478,51,689.905,694.405,695.747,28.41,274.421,520.416,246.026,492.02,738.015,ConInc
1,bas,cue,1,155938,bas_cue_run1_155938,H5,o,c,Con,n,2,2,,switch,red,black,black,NoInc,3200,1,918,2,2,821598,826097,827015,118478,52,703.12,707.619,708.537,28.41,274.421,520.416,246.026,492.02,738.015,ConNoInc
1,bas,cue,1,155938,bas_cue_run1_155938,A2,e,v,Con,n,1,1,,stay,red,black,black,NoInc,2000,1,936,1,1,833596,838095,839031,118478,53,715.118,719.617,720.553,28.41,274.421,520.416,246.026,492.02,738.015,ConNoInc
1,bas,cue,1,155938,bas_cue_run1_155938,3E,o,v,InCon,l,2,1,,switch,red,black,green,Inc,4400,1,828,1,1,844394,848894,849722,118478,54,725.916,730.416,731.244,28.41,274.421,520.416,246.026,492.02,738.015,InConInc
1,bas,cue,2,155938,bas_cue_run2_155938,D4,e,c,InCon,n,1,2,,,red,black,green,Inc,3200,1,890,1,1,71769,76268,77158,40661,1,31.108,35.607,36.497,28.409,274.42,520.414,246.024,492.019,738.013,InConInc
1,bas,cue,2,155938,bas_cue_run2_155938,6I,e,v,Con,n,1,1,,stay,red,black,black,NoInc,4400,1,585,1,1,83767,88267,88852,40661,2,43.106,47.606,48.191,28.409,274.42,520.414,246.024,492.019,738.013,ConNoInc
1,bas,cue,2,155938,bas_cue_run2_155938,A2,e,v,Con,l,1,1,,switch,red,black,black,NoInc,2000,1,901,1,1,96965,101481,102382,40661,3,56.304,60.82,61.721,28.409,274.42,520.414,246.024,492.019,738.013,ConNoInc
1,bas,cue,2,155938,bas_cue_run2_155938,B2,e,c,InCon,l,1,2,,stay,red,black,black,NoInc,4400,1,927,2,2,107780,112279,113206,40661,4,67.119,71.618,72.545,28.409,274.42,520.414,246.024,492.019,738.013,InConNoInc
1,bas,cue,2,155938,bas_cue_run2_155938,4D,e,c,InCon,l,1,2,,stay,red,black,green,Inc,4400,1,702,2,2,120978,125477,126179,40661,5,80.317,84.816,85.518,28.409,274.42,520.414,246.024,492.019,738.013,InConInc
1,bas,cue,2,155938,bas_cue_run2_155938,B1,o,c,Con,l,2,2,,stay,red,black,black,NoInc,2000,1,536,2,2,134176,138675,139211,40661,6,93.515,98.014,98.55,28.409,274.42,520.414,246.024,492.019,738.013,ConNoInc
1,bas,cue,2,155938,bas_cue_run2_155938,1B,o,c,Con,l,2,2,,stay,red,black,black,NoInc,3200,1,680,2,2,144974,149474,150154,40661,7,104.313,108.813,109.493,28.409,274.42,520.414,246.024,492.019,738.013,ConNoInc
1,bas,cue,2,155938,bas_cue_run2_155938,A2,e,v,Con,n,1,1,,switch,red,black,black,NoInc,2000,1,1282,1,1,156972,161472,162754,40661,8,116.311,120.811,122.093,28.409,274.42,520.414,246.024,492.019,738.013,ConNoInc
1,bas,cue,2,155938,bas_cue_run2_155938,5H,o,c,Con,n,2,2,,stay,red,black,black,NoInc,3200,1,725,2,2,167771,172270,172995,40661,9,127.11,131.609,132.334,28.409,274.42,520.414,246.024,492.019,738.013,ConNoInc
1,bas,cue,2,155938,bas_cue_run2_155938,6I,e,v,Con,l,1,1,,switch,red,black,green,Inc,4400,1,1304,1,1,179769,184268,185572,40661,10,139.108,143.607,144.911,28.409,274.42,520.414,246.024,492.019,738.013,ConInc
1,bas,cue,2,155938,bas_cue_run2_155938,E3,o,v,InCon,l,2,1,,stay,red,black,green,Inc,2000,1,855,1,1,192967,197466,198321,40661,11,152.306,156.805,157.66,28.409,274.42,520.414,246.024,492.019,738.013,InConInc
1,bas,cue,2,155938,bas_cue_run2_155938,3E,o,v,InCon,n,2,1,,switch,red,black,green,Inc,3200,1,906,2,2,203765,208281,209187,40661,12,163.104,167.62,168.526,28.409,274.42,520.414,246.024,492.019,738.013,InConInc
1,bas,cue,2,155938,bas_cue_run2_155938,1B,o,c,Con,n,2,2,,stay,red,black,black,NoInc,4400,1,866,2,2,215780,220279,221145,40661,13,175.119,179.618,180.484,28.409,274.42,520.414,246.024,492.019,738.013,ConNoInc
1,bas,cue,2,155938,bas_cue_run2_155938,2A,e,v,Con,l,1,1,,switch,red,black,black,NoInc,3200,1,790,1,1,228978,233477,234267,40661,14,188.317,192.816,193.606,28.409,274.42,520.414,246.024,492.019,738.013,ConNoInc
1,bas,cue,2,155938,bas_cue_run2_155938,2A,e,v,Con,n,1,1,,switch,red,black,black,NoInc,2000,1,706,1,1,240976,245475,246181,40661,15,200.315,204.814,205.52,28.409,274.42,520.414,246.024,492.019,738.013,ConNoInc
1,bas,cue,2,155938,bas_cue_run2_155938,E3,o,v,InCon,n,2,1,,stay,red,black,green,Inc,4400,1,965,2,2,251774,256273,257238,40661,16,211.113,215.612,216.577,28.409,274.42,520.414,246.024,492.019,738.013,InConInc
1,bas,cue,2,155938,bas_cue_run2_155938,B1,o,c,Con,n,2,2,,stay,red,black,black,NoInc,3200,1,734,2,2,264972,269471,270205,40661,17,224.311,228.81,229.544,28.409,274.42,520.414,246.024,492.019,738.013,ConNoInc
1,bas,cue,2,155938,bas_cue_run2_155938,H5,o,c,Con,l,2,2,,switch,red,black,black,NoInc,2000,1,1031,2,2,276970,281469,282500,40661,18,236.309,240.808,241.839,28.409,274.42,520.414,246.024,492.019,738.013,ConNoInc
1,bas,cue,2,155938,bas_cue_run2_155938,B1,o,c,Con,l,2,2,,,red,black,black,NoInc,4400,1,816,2,2,317780,322280,323096,40661,19,277.119,281.619,282.435,28.409,274.42,520.414,246.024,492.019,738.013,ConNoInc
1,bas,cue,2,155938,bas_cue_run2_155938,A2,e,v,Con,l,1,1,,stay,red,black,black,NoInc,2000,1,876,1,1,330978,335477,336353,40661,20,290.317,294.816,295.692,28.409,274.42,520.414,246.024,492.019,738.013,ConNoInc
1,bas,cue,2,155938,bas_cue_run2_155938,I6,e,v,Con,n,1,1,,switch,red,black,black,NoInc,3200,1,1711,1,1,341776,346276,347987,40661,21,301.115,305.615,307.326,28.409,274.42,520.414,246.024,492.019,738.013,ConNoInc
1,bas,cue,2,155938,bas_cue_run2_155938,3E,o,v,InCon,l,2,1,,switch,red,black,green,Inc,3200,1,1166,1,1,353775,358274,359440,40661,22,313.114,317.613,318.779,28.409,274.42,520.414,246.024,492.019,738.013,InConInc
1,bas,cue,2,155938,bas_cue_run2_155938,I6,e,v,Con,n,1,1,,switch,red,black,green,Inc,4400,1,1726,1,1,365773,370272,371998,40661,23,325.112,329.611,331.337,28.409,274.42,520.414,246.024,492.019,738.013,ConInc
1,bas,cue,2,155938,bas_cue_run2_155938,1A,o,v,InCon,n,2,1,,stay,red,black,black,NoInc,2000,1,761,2,2,378971,383470,384231,40661,24,338.31,342.809,343.57,28.409,274.42,520.414,246.024,492.019,738.013,InConNoInc
1,bas,cue,2,155938,bas_cue_run2_155938,5H,o,c,Con,l,2,2,,switch,red,black,green,Inc,2000,1,765,2,2,389769,394268,395033,40661,25,349.108,353.607,354.372,28.409,274.42,520.414,246.024,492.019,738.013,ConInc
1,bas,cue,2,155938,bas_cue_run2_155938,D4,e,c,InCon,n,1,2,,switch,red,black,green,Inc,3200,1,847,1,1,400567,405066,405913,40661,26,359.906,364.405,365.252,28.409,274.42,520.414,246.024,492.019,738.013,InConInc
1,bas,cue,2,155938,bas_cue_run2_155938,D4,e,c,InCon,l,1,2,,switch,red,black,green,Inc,4400,1,516,2,2,412565,417081,417597,40661,27,371.904,376.42,376.936,28.409,274.42,520.414,246.024,492.019,738.013,InConInc
1,bas,cue,2,155938,bas_cue_run2_155938,I6,e,v,Con,l,1,1,,stay,red,black,black,NoInc,3200,1,995,1,1,425780,430279,431274,40661,28,385.119,389.618,390.613,28.409,274.42,520.414,246.024,492.019,738.013,ConNoInc
1,bas,cue,2,155938,bas_cue_run2_155938,2A,e,v,Con,l,1,1,,stay,red,black,black,NoInc,2000,1,516,1,1,437778,442277,442793,40661,29,397.117,401.616,402.132,28.409,274.42,520.414,246.024,492.019,738.013,ConNoInc
1,bas,cue,2,155938,bas_cue_run2_155938,A2,e,v,Con,n,1,1,,switch,red,black,black,NoInc,2000,1,718,1,1,448576,453076,453794,40661,30,407.915,412.415,413.133,28.409,274.42,520.414,246.024,492.019,738.013,ConNoInc
1,bas,cue,2,155938,bas_cue_run2_155938,B1,o,c,Con,n,2,2,,stay,red,black,black,NoInc,4400,1,736,2,2,459375,463874,464610,40661,31,418.714,423.213,423.949,28.409,274.42,520.414,246.024,492.019,738.013,ConNoInc
1,bas,cue,2,155938,bas_cue_run2_155938,2A,e,v,Con,n,1,1,,stay,red,black,black,NoInc,4400,1,784,1,1,472572,477072,477856,40661,32,431.911,436.411,437.195,28.409,274.42,520.414,246.024,492.019,738.013,ConNoInc
1,bas,cue,2,155938,bas_cue_run2_155938,1B,o,c,Con,l,2,2,,switch,red,black,black,NoInc,4400,1,653,2,2,485770,490270,490923,40661,33,445.109,449.609,450.262,28.409,274.42,520.414,246.024,492.019,738.013,ConNoInc
1,bas,cue,2,155938,bas_cue_run2_155938,4D,e,c,InCon,n,1,2,,switch,red,black,green,Inc,2000,1,1202,1,1,498968,503468,504670,40661,34,458.307,462.807,464.009,28.409,274.42,520.414,246.024,492.019,738.013,InConInc
1,bas,cue,2,155938,bas_cue_run2_155938,H5,o,c,Con,l,2,2,,switch,red,black,black,NoInc,3200,1,805,2,2,509767,514266,515071,40661,35,469.106,473.605,474.41,28.409,274.42,520.414,246.024,492.019,738.013,ConNoInc
1,bas,cue,2,155938,bas_cue_run2_155938,2B,e,c,InCon,n,1,2,,switch,red,black,black,NoInc,3200,1,552,1,1,521765,526281,526833,40661,36,481.104,485.62,486.172,28.409,274.42,520.414,246.024,492.019,738.013,InConNoInc
1,bas,cue,2,155938,bas_cue_run2_155938,5H,o,c,Con,n,2,2,,,red,black,black,NoInc,2000,1,720,2,2,563775,568274,568994,40661,37,523.114,527.613,528.333,28.409,274.42,520.414,246.024,492.019,738.013,ConNoInc
1,bas,cue,2,155938,bas_cue_run2_155938,2A,e,v,Con,n,1,1,,stay,red,black,black,NoInc,3200,1,844,1,1,574573,579072,579916,40661,38,533.912,538.411,539.255,28.409,274.42,520.414,246.024,492.019,738.013,ConNoInc
1,bas,cue,2,155938,bas_cue_run2_155938,A2,e,v,Con,l,1,1,,switch,red,black,black,NoInc,2000,1,736,1,1,586571,591070,591806,40661,39,545.91,550.409,551.145,28.409,274.42,520.414,246.024,492.019,738.013,ConNoInc
1,bas,cue,2,155938,bas_cue_run2_155938,4D,e,c,InCon,l,1,2,,stay,red,black,green,Inc,4400,1,656,2,2,597369,601869,602525,40661,40,556.708,561.208,561.864,28.409,274.42,520.414,246.024,492.019,738.013,InConInc
1,bas,cue,2,155938,bas_cue_run2_155938,4D,e,c,InCon,n,1,2,,switch,red,black,green,Inc,2000,1,1088,1,1,610567,615067,616155,40661,41,569.906,574.406,575.494,28.409,274.42,520.414,246.024,492.019,738.013,InConInc
1,bas,cue,2,155938,bas_cue_run2_155938,B1,o,c,Con,n,2,2,,stay,red,black,black,NoInc,3200,1,644,2,2,621366,625865,626509,40661,42,580.705,585.204,585.848,28.409,274.42,520.414,246.024,492.019,738.013,ConNoInc
1,bas,cue,2,155938,bas_cue_run2_155938,H5,o,c,Con,n,2,2,,stay,red,black,green,Inc,4400,1,729,2,2,633380,637880,638609,40661,43,592.719,597.219,597.948,28.409,274.42,520.414,246.024,492.019,738.013,ConInc
1,bas,cue,2,155938,bas_cue_run2_155938,6I,e,v,Con,n,1,1,,stay,red,black,black,NoInc,3200,1,1409,1,1,646578,651078,652487,40661,44,605.917,610.417,611.826,28.409,274.42,520.414,246.024,492.019,738.013,ConNoInc
1,bas,cue,2,155938,bas_cue_run2_155938,1B,o,c,Con,l,2,2,,switch,red,black,black,NoInc,4400,1,835,2,2,658576,663076,663911,40661,45,617.915,622.415,623.25,28.409,274.42,520.414,246.024,492.019,738.013,ConNoInc
1,bas,cue,2,155938,bas_cue_run2_155938,1B,o,c,Con,n,2,2,,switch,red,black,black,NoInc,3200,1,781,2,2,671774,676274,677055,40661,46,631.113,635.613,636.394,28.409,274.42,520.414,246.024,492.019,738.013,ConNoInc
1,bas,cue,2,155938,bas_cue_run2_155938,3E,o,v,InCon,n,2,1,,stay,red,black,green,Inc,4400,1,732,2,2,683772,688272,689004,40661,47,643.111,647.611,648.343,28.409,274.42,520.414,246.024,492.019,738.013,InConInc
1,bas,cue,2,155938,bas_cue_run2_155938,A1,o,v,InCon,l,2,1,,switch,red,black,black,NoInc,3200,1,969,1,1,696970,701470,702439,40661,48,656.309,660.809,661.778,28.409,274.42,520.414,246.024,492.019,738.013,InConNoInc
1,bas,cue,2,155938,bas_cue_run2_155938,2B,e,c,InCon,l,1,2,,stay,red,black,black,NoInc,4400,1,745,2,2,708968,713468,714213,40661,49,668.307,672.807,673.552,28.409,274.42,520.414,246.024,492.019,738.013,InConNoInc
1,bas,cue,2,155938,bas_cue_run2_155938,E3,o,v,InCon,l,2,1,,stay,red,black,green,Inc,2000,1,705,1,1,722166,726666,727371,40661,50,681.505,686.005,686.71,28.409,274.42,520.414,246.024,492.019,738.013,InConInc
1,bas,cue,2,155938,bas_cue_run2_155938,A2,e,v,Con,n,1,1,,switch,red,black,black,NoInc,3200,1,650,1,1,732965,737481,738131,40661,51,692.304,696.82,697.47,28.409,274.42,520.414,246.024,492.019,738.013,ConNoInc
1,bas,cue,2,155938,bas_cue_run2_155938,D4,e,c,InCon,l,1,2,,switch,red,black,green,Inc,4400,1,874,2,2,744979,749479,750353,40661,52,704.318,708.818,709.692,28.409,274.42,520.414,246.024,492.019,738.013,InConInc
1,bas,cue,2,155938,bas_cue_run2_155938,H5,o,c,Con,l,2,2,,stay,red,black,black,NoInc,2000,1,770,2,2,758177,762677,763447,40661,53,717.516,722.016,722.786,28.409,274.42,520.414,246.024,492.019,738.013,ConNoInc
1,bas,cue,2,155938,bas_cue_run2_155938,B1,o,c,Con,l,2,2,,stay,red,black,black,NoInc,2000,1,601,2,2,768976,773475,774076,40661,54,728.315,732.814,733.415,28.409,274.42,520.414,246.024,492.019,738.013,ConNoInc
1,pro,cue,1,155938,pro_cue_run1_155938,B2,e,c,InCon,n,1,2,,,red,black,black,NoInc,4400,0,0,,1,179784,183917,0,148311,1,31.473,35.606,-148.311,31.19,274.418,520.412,246.022,492.017,738.028,InConNoInc
1,pro,cue,1,155938,pro_cue_run1_155938,1B,o,c,Con,n,2,2,,stay,red,black,black,NoInc,4400,1,1102,2,2,192632,197131,198233,148311,2,44.321,48.82,49.922,31.19,274.418,520.412,246.022,492.017,738.028,ConNoInc
1,pro,cue,1,155938,pro_cue_run1_155938,6I,e,v,Con,n,1,1,yes,stay,green,black,green,Inc,2000,1,931,1,1,205830,210329,211260,148311,3,57.519,62.018,62.949,31.19,274.418,520.412,246.022,492.017,738.028,ConInc
1,pro,cue,1,155938,pro_cue_run1_155938,D4,e,c,InCon,l,1,2,yes,switch,green,black,green,Inc,4400,1,836,2,2,216628,221127,221963,148311,4,68.317,72.816,73.652,31.19,274.418,520.412,246.022,492.017,738.028,InConInc
1,pro,cue,1,155938,pro_cue_run1_155938,2A,e,v,Con,n,1,1,,switch,red,black,black,NoInc,2000,1,736,1,1,229826,234325,235061,148311,5,81.515,86.014,86.75,31.19,274.418,520.412,246.022,492.017,738.028,ConNoInc
1,pro,cue,1,155938,pro_cue_run1_155938,A2,e,v,Con,l,1,1,,switch,red,black,black,NoInc,3200,0,739,2,1,240624,245124,245863,148311,6,92.313,96.813,97.552,31.19,274.418,520.412,246.022,492.017,738.028,ConNoInc
1,pro,cue,1,155938,pro_cue_run1_155938,E3,o,v,InCon,l,2,1,yes,stay,green,black,green,Inc,3200,1,909,1,1,252622,257122,258031,148311,7,104.311,108.811,109.72,31.19,274.418,520.412,246.022,492.017,738.028,InConInc
1,pro,cue,1,155938,pro_cue_run1_155938,I6,e,v,Con,l,1,1,too.slow,stay,green,black,green,Inc,2000,1,1110,1,1,264621,269120,270230,148311,8,116.31,120.809,121.919,31.19,274.418,520.412,246.022,492.017,738.028,ConInc
1,pro,cue,1,155938,pro_cue_run1_155938,D4,e,c,InCon,n,1,2,too.slow,switch,green,black,green,Inc,3200,1,1008,1,1,275419,279918,280926,148311,9,127.108,131.607,132.615,31.19,274.418,520.412,246.022,492.017,738.028,InConInc
1,pro,cue,1,155938,pro_cue_run1_155938,B1,o,c,Con,n,2,2,,stay,red,black,black,NoInc,4400,1,661,2,2,287417,291916,292577,148311,10,139.106,143.605,144.266,31.19,274.418,520.412,246.022,492.017,738.028,ConNoInc
1,pro,cue,1,155938,pro_cue_run1_155938,H5,o,c,Con,l,2,2,,switch,red,black,black,NoInc,2000,1,947,2,2,300631,305131,306078,148311,11,152.32,156.82,157.767,31.19,274.418,520.412,246.022,492.017,738.028,ConNoInc
1,pro,cue,1,155938,pro_cue_run1_155938,B1,o,c,Con,l,2,2,,stay,red,black,black,NoInc,3200,1,681,2,2,311430,315929,316610,148311,12,163.119,167.618,168.299,31.19,274.418,520.412,246.022,492.017,738.028,ConNoInc
1,pro,cue,1,155938,pro_cue_run1_155938,I6,e,v,Con,n,1,1,,switch,red,black,black,NoInc,3200,1,549,1,1,323428,327927,328476,148311,13,175.117,179.616,180.165,31.19,274.418,520.412,246.022,492.017,738.028,ConNoInc
1,pro,cue,1,155938,pro_cue_run1_155938,4D,e,c,InCon,n,1,2,yes,stay,green,black,green,Inc,2000,1,608,1,1,335426,339925,340533,148311,14,187.115,191.614,192.222,31.19,274.418,520.412,246.022,492.017,738.028,InConInc
1,pro,cue,1,155938,pro_cue_run1_155938,5H,o,c,Con,l,2,2,,switch,red,black,black,NoInc,2000,1,780,2,2,346224,350724,351504,148311,15,197.913,202.413,203.193,31.19,274.418,520.412,246.022,492.017,738.028,ConNoInc
1,pro,cue,1,155938,pro_cue_run1_155938,1B,o,c,Con,l,2,2,,stay,red,black,black,NoInc,4400,1,575,2,2,357023,361522,362097,148311,16,208.712,213.211,213.786,31.19,274.418,520.412,246.022,492.017,738.028,ConNoInc
1,pro,cue,1,155938,pro_cue_run1_155938,1A,o,v,InCon,l,2,1,,stay,red,black,black,NoInc,4400,1,728,1,1,370220,374720,375448,148311,17,221.909,226.409,227.137,31.19,274.418,520.412,246.022,492.017,738.028,InConNoInc
1,pro,cue,1,155938,pro_cue_run1_155938,A2,e,v,Con,n,1,1,,switch,red,black,black,NoInc,3200,1,623,1,1,383418,387918,388541,148311,18,235.107,239.607,240.23,31.19,274.418,520.412,246.022,492.017,738.028,ConNoInc
1,pro,cue,1,155938,pro_cue_run1_155938,5H,o,c,Con,l,2,2,,,red,black,black,NoInc,3200,1,566,2,2,425428,429928,430494,148311,19,277.117,281.617,282.183,31.19,274.418,520.412,246.022,492.017,738.028,ConNoInc
1,pro,cue,1,155938,pro_cue_run1_155938,A1,o,v,InCon,n,2,1,,switch,red,black,black,NoInc,3200,1,813,2,2,437427,441926,442739,148311,20,289.116,293.615,294.428,31.19,274.418,520.412,246.022,492.017,738.028,InConNoInc
1,pro,cue,1,155938,pro_cue_run1_155938,2A,e,v,Con,l,1,1,,switch,red,black,black,NoInc,4400,1,1198,1,1,449425,453924,455122,148311,21,301.114,305.613,306.811,31.19,274.418,520.412,246.022,492.017,738.028,ConNoInc
1,pro,cue,1,155938,pro_cue_run1_155938,E3,o,v,InCon,n,2,1,yes,switch,green,black,green,Inc,4400,1,610,2,2,462623,467122,467732,148311,22,314.312,318.811,319.421,31.19,274.418,520.412,246.022,492.017,738.028,InConInc
1,pro,cue,1,155938,pro_cue_run1_155938,2A,e,v,Con,n,1,1,,stay,red,black,black,NoInc,3200,1,838,1,1,475820,480320,481158,148311,23,327.509,332.009,332.847,31.19,274.418,520.412,246.022,492.017,738.028,ConNoInc
1,pro,cue,1,155938,pro_cue_run1_155938,5H,o,c,Con,n,2,2,yes,stay,green,black,green,Inc,4400,1,610,2,2,487819,492318,492928,148311,24,339.508,344.007,344.617,31.19,274.418,520.412,246.022,492.017,738.028,ConInc
1,pro,cue,1,155938,pro_cue_run1_155938,2B,e,c,InCon,l,1,2,,switch,red,black,black,NoInc,2000,1,676,2,2,501016,505532,506208,148311,25,352.705,357.221,357.897,31.19,274.418,520.412,246.022,492.017,738.028,InConNoInc
1,pro,cue,1,155938,pro_cue_run1_155938,3E,o,v,InCon,l,2,1,yes,stay,green,black,green,Inc,2000,1,729,1,1,511831,516331,517060,148311,26,363.52,368.02,368.749,31.19,274.418,520.412,246.022,492.017,738.028,InConInc
1,pro,cue,1,155938,pro_cue_run1_155938,1B,o,c,Con,l,2,2,,stay,red,black,black,NoInc,2000,1,659,2,2,522630,527129,527788,148311,27,374.319,378.818,379.477,31.19,274.418,520.412,246.022,492.017,738.028,ConNoInc
1,pro,cue,1,155938,pro_cue_run1_155938,B1,o,c,Con,l,2,2,,stay,red,black,black,NoInc,2000,1,544,2,2,533428,537927,538471,148311,28,385.117,389.616,390.16,31.19,274.418,520.412,246.022,492.017,738.028,ConNoInc
1,pro,cue,1,155938,pro_cue_run1_155938,A2,e,v,Con,n,1,1,,switch,red,black,black,NoInc,3200,1,519,1,1,544226,548726,549245,148311,29,395.915,400.415,400.934,31.19,274.418,520.412,246.022,492.017,738.028,ConNoInc
1,pro,cue,1,155938,pro_cue_run1_155938,D4,e,c,InCon,l,1,2,yes,switch,green,black,green,Inc,3200,1,540,2,2,556224,560724,561264,148311,30,407.913,412.413,412.953,31.19,274.418,520.412,246.022,492.017,738.028,InConInc
1,pro,cue,1,155938,pro_cue_run1_155938,2A,e,v,Con,l,1,1,,stay,red,black,black,NoInc,4400,1,634,1,1,568222,572722,573356,148311,31,419.911,424.411,425.045,31.19,274.418,520.412,246.022,492.017,738.028,ConNoInc
1,pro,cue,1,155938,pro_cue_run1_155938,E3,o,v,InCon,n,2,1,yes,switch,green,black,green,Inc,4400,1,508,2,2,581420,585920,586428,148311,32,433.109,437.609,438.117,31.19,274.418,520.412,246.022,492.017,738.028,InConInc
1,pro,cue,1,155938,pro_cue_run1_155938,6I,e,v,Con,n,1,1,,stay,red,black,black,NoInc,2000,1,454,1,1,594618,599118,599572,148311,33,446.307,450.807,451.261,31.19,274.418,520.412,246.022,492.017,738.028,ConNoInc
1,pro,cue,1,155938,pro_cue_run1_155938,3E,o,v,InCon,n,2,1,yes,stay,green,black,green,Inc,3200,1,565,2,2,605417,609916,610481,148311,34,457.106,461.605,462.17,31.19,274.418,520.412,246.022,492.017,738.028,InConInc
1,pro,cue,1,155938,pro_cue_run1_155938,1B,o,c,Con,n,2,2,,stay,red,black,black,NoInc,4400,1,667,2,2,617431,621931,622598,148311,35,469.12,473.62,474.287,31.19,274.418,520.412,246.022,492.017,738.028,ConNoInc
1,pro,cue,1,155938,pro_cue_run1_155938,I6,e,v,Con,l,1,1,,switch,red,black,black,NoInc,2000,1,971,1,1,630629,635129,636100,148311,36,482.318,486.818,487.789,31.19,274.418,520.412,246.022,492.017,738.028,ConNoInc
1,pro,cue,1,155938,pro_cue_run1_155938,2A,e,v,Con,n,1,1,,,red,black,black,NoInc,4400,1,518,1,1,671423,675922,676440,148311,37,523.112,527.611,528.129,31.19,274.418,520.412,246.022,492.017,738.028,ConNoInc
1,pro,cue,1,155938,pro_cue_run1_155938,3E,o,v,InCon,l,2,1,yes,switch,green,black,green,Inc,3200,1,617,1,1,684621,689120,689737,148311,38,536.31,540.809,541.426,31.19,274.418,520.412,246.022,492.017,738.028,InConInc
1,pro,cue,1,155938,pro_cue_run1_155938,H5,o,c,Con,l,2,2,yes,stay,green,black,green,Inc,2000,1,521,2,2,696619,701118,701639,148311,39,548.308,552.807,553.328,31.19,274.418,520.412,246.022,492.017,738.028,ConInc
1,pro,cue,1,155938,pro_cue_run1_155938,4D,e,c,InCon,l,1,2,yes,stay,green,black,green,Inc,4400,1,885,2,2,707417,711916,712801,148311,40,559.106,563.605,564.49,31.19,274.418,520.412,246.022,492.017,738.028,InConInc
1,pro,cue,1,155938,pro_cue_run1_155938,1B,o,c,Con,l,2,2,,stay,red,black,black,NoInc,3200,1,496,2,2,720632,725131,725627,148311,41,572.321,576.82,577.316,31.19,274.418,520.412,246.022,492.017,738.028,ConNoInc
1,pro,cue,1,155938,pro_cue_run1_155938,H5,o,c,Con,n,2,2,,switch,red,black,black,NoInc,3200,1,905,2,2,732630,737129,738034,148311,42,584.319,588.818,589.723,31.19,274.418,520.412,246.022,492.017,738.028,ConNoInc
