task,subj,wave,session,trialtype,cresp,resp,acc,rt,trialnum,hilo,hilo_all
Axcpt,DMCC8760894,wave1,baseline,BY,1,1,1,529,1,lo,lo
Axcpt,DMCC8760894,wave1,baseline,Bng,,,1,0,2,,
Axcpt,DMCC8760894,wave1,baseline,AX,2,2,1,389,3,,lo
Axcpt,DMCC8760894,wave1,baseline,BX,1,1,1,442,4,hi,hi
Axcpt,DMCC8760894,wave1,baseline,AX,2,2,1,371,5,,lo
Axcpt,DMCC8760894,wave1,baseline,AX,2,2,1,397,6,,lo
Axcpt,DMCC8760894,wave1,baseline,BY,1,1,1,454,7,lo,lo
Axcpt,DMCC8760894,wave1,baseline,AX,2,2,1,394,8,,lo
Axcpt,DMCC8760894,wave1,baseline,AY,1,1,1,565,9,,hi
Axcpt,DMCC8760894,wave1,baseline,BY,1,1,1,470,10,lo,lo
Axcpt,DMCC8760894,wave1,baseline,BY,1,1,1,426,11,lo,lo
Axcpt,DMCC8760894,wave1,baseline,AX,2,2,1,332,12,,lo
Axcpt,DMCC8760894,wave1,baseline,BY,1,1,1,450,13,lo,lo
Axcpt,DMCC8760894,wave1,baseline,Bng,,,1,0,14,,
Axcpt,DMCC8760894,wave1,baseline,AY,1,1,1,463,15,,hi
Axcpt,DMCC8760894,wave1,baseline,AX,2,2,1,423,16,,lo
Axcpt,DMCC8760894,wave1,baseline,Ang,,,1,0,17,,
Axcpt,DMCC8760894,wave1,baseline,Ang,,,1,0,18,,
Axcpt,DMCC8760894,wave1,baseline,BY,1,1,1,393,19,lo,lo
Axcpt,DMCC8760894,wave1,baseline,BX,1,1,1,1156,20,hi,hi
Axcpt,DMCC8760894,wave1,baseline,BY,1,1,1,527,21,lo,lo
Axcpt,DMCC8760894,wave1,baseline,BY,1,1,1,550,22,lo,lo
Axcpt,DMCC8760894,wave1,baseline,AX,2,2,1,434,23,,lo
Axcpt,DMCC8760894,wave1,baseline,AX,2,2,1,449,24,,lo
Axcpt,DMCC8760894,wave1,baseline,BY,1,1,1,432,25,lo,lo
Axcpt,DMCC8760894,wave1,baseline,BY,1,1,1,490,26,lo,lo
Axcpt,DMCC8760894,wave1,baseline,AX,2,2,1,421,27,,lo
Axcpt,DMCC8760894,wave1,baseline,Bng,,,1,0,28,,
Axcpt,DMCC8760894,wave1,baseline,AX,2,2,1,405,29,,lo
Axcpt,DMCC8760894,wave1,baseline,BY,1,1,1,636,30,lo,lo
Axcpt,DMCC8760894,wave1,baseline,AX,2,1,0,41,31,,lo
Axcpt,DMCC8760894,wave1,baseline,BX,1,1,1,628,32,hi,hi
Axcpt,DMCC8760894,wave1,baseline,BY,1,1,1,429,33,lo,lo
Axcpt,DMCC8760894,wave1,baseline,AX,2,2,1,395,34,,lo
Axcpt,DMCC8760894,wave1,baseline,Ang,,,1,0,35,,
Axcpt,DMCC8760894,wave1,baseline,AX,2,2,1,560,36,,lo
Axcpt,DMCC8760894,wave1,baseline,BY,1,1,1,479,37,lo,lo
Axcpt,DMCC8760894,wave1,baseline,AX,2,2,1,498,38,,lo
Axcpt,DMCC8760894,wave1,baseline,BY,1,1,1,1093,39,lo,lo
Axcpt,DMCC8760894,wave1,baseline,AX,2,2,1,450,40,,lo
Axcpt,DMCC8760894,wave1,baseline,BY,1,,0,0,41,lo,lo
Axcpt,DMCC8760894,wave1,baseline,Ang,,,1,0,42,,
Axcpt,DMCC8760894,wave1,baseline,BY,1,1,1,610,43,lo,lo
Axcpt,DMCC8760894,wave1,baseline,AX,2,1,0,844,44,,lo
Axcpt,DMCC8760894,wave1,baseline,Bng,,,1,0,45,,
Axcpt,DMCC8760894,wave1,baseline,AY,1,1,1,501,46,,hi
Axcpt,DMCC8760894,wave1,baseline,AY,1,1,1,671,47,,hi
Axcpt,DMCC8760894,wave1,baseline,BX,1,,0,0,48,hi,hi
Axcpt,DMCC8760894,wave1,baseline,BX,1,1,1,675,49,hi,hi
Axcpt,DMCC8760894,wave1,baseline,Bng,,,1,0,50,,
Axcpt,DMCC8760894,wave1,baseline,BY,1,1,1,685,51,lo,lo
Axcpt,DMCC8760894,wave1,baseline,AX,2,1,0,178,52,,lo
Axcpt,DMCC8760894,wave1,baseline,AY,1,1,1,716,53,,hi
Axcpt,DMCC8760894,wave1,baseline,AY,1,1,1,608,54,,hi
Axcpt,DMCC8760894,wave1,baseline,BX,1,1,1,827,55,hi,hi
Axcpt,DMCC8760894,wave1,baseline,AX,2,2,1,430,56,,lo
Axcpt,DMCC8760894,wave1,baseline,BY,1,1,1,621,57,lo,lo
Axcpt,DMCC8760894,wave1,baseline,AX,2,2,1,423,58,,lo
Axcpt,DMCC8760894,wave1,baseline,BY,1,,0,0,59,lo,lo
Axcpt,DMCC8760894,wave1,baseline,AX,2,2,1,417,60,,lo
Axcpt,DMCC8760894,wave1,baseline,Bng,,,1,0,61,,
Axcpt,DMCC8760894,wave1,baseline,AX,2,2,1,504,62,,lo
Axcpt,DMCC8760894,wave1,baseline,Ang,,,1,0,63,,
Axcpt,DMCC8760894,wave1,baseline,BY,1,1,1,575,64,lo,lo
Axcpt,DMCC8760894,wave1,baseline,Ang,,,1,0,65,,
Axcpt,DMCC8760894,wave1,baseline,AX,2,2,1,756,66,,lo
Axcpt,DMCC8760894,wave1,baseline,BY,1,1,1,514,67,lo,lo
Axcpt,DMCC8760894,wave1,baseline,BY,1,1,1,417,68,lo,lo
Axcpt,DMCC8760894,wave1,baseline,BY,1,1,1,527,69,lo,lo
Axcpt,DMCC8760894,wave1,baseline,BY,1,1,1,483,70,lo,lo
Axcpt,DMCC8760894,wave1,baseline,AX,2,2,1,824,71,,lo
Axcpt,DMCC8760894,wave1,baseline,AX,2,2,1,413,72,,lo
Axcpt,DMCC8760894,wave1,baseline,BY,1,1,1,478,73,lo,lo
Axcpt,DMCC8760894,wave1,baseline,BY,1,1,1,413,74,lo,lo
Axcpt,DMCC8760894,wave1,baseline,BY,1,1,1,443,75,lo,lo
Axcpt,DMCC8760894,wave1,baseline,AX,2,2,1,434,76,,lo
Axcpt,DMCC8760894,wave1,baseline,BY,1,1,1,519,77,lo,lo
Axcpt,DMCC8760894,wave1,baseline,AY,1,1,1,361,78,,hi
Axcpt,DMCC8760894,wave1,baseline,AX,2,2,1,563,79,,lo
Axcpt,DMCC8760894,wave1,baseline,BX,1,1,1,818,80,hi,hi
Axcpt,DMCC8760894,wave1,baseline,BY,1,1,1,465,81,lo,lo
Axcpt,DMCC8760894,wave1,baseline,BY,1,1,1,452,82,lo,lo
Axcpt,DMCC8760894,wave1,baseline,Bng,,,1,0,83,,
Axcpt,DMCC8760894,wave1,baseline,BY,1,1,1,455,84,lo,lo
Axcpt,DMCC8760894,wave1,baseline,Ang,,,1,0,85,,
Axcpt,DMCC8760894,wave1,baseline,AX,2,1,0,578,86,,lo
Axcpt,DMCC8760894,wave1,baseline,Ang,,,1,0,87,,
Axcpt,DMCC8760894,wave1,baseline,AX,2,1,0,670,88,,lo
Axcpt,DMCC8760894,wave1,baseline,Bng,,,1,0,89,,
Axcpt,DMCC8760894,wave1,baseline,AY,1,1,1,674,90,,hi
Axcpt,DMCC8760894,wave1,baseline,BX,1,1,1,579,91,hi,hi
Axcpt,DMCC8760894,wave1,baseline,AX,2,2,1,369,92,,lo
Axcpt,DMCC8760894,wave1,baseline,AX,2,2,1,389,93,,lo
Axcpt,DMCC8760894,wave1,baseline,AX,2,2,1,536,94,,lo
Axcpt,DMCC8760894,wave1,baseline,BY,1,1,1,655,95,lo,lo
Axcpt,DMCC8760894,wave1,baseline,AX,2,2,1,452,96,,lo
Axcpt,DMCC8760894,wave1,baseline,Ang,,,1,0,97,,
Axcpt,DMCC8760894,wave1,baseline,Bng,,,1,0,98,,
Axcpt,DMCC8760894,wave1,baseline,BY,1,1,1,451,99,lo,lo
Axcpt,DMCC8760894,wave1,baseline,BX,1,,0,0,100,hi,hi
Axcpt,DMCC8760894,wave1,baseline,Ang,,,1,0,101,,
Axcpt,DMCC8760894,wave1,baseline,AX,2,1,0,436,102,,lo
Axcpt,DMCC8760894,wave1,baseline,BY,1,1,1,626,103,lo,lo
Axcpt,DMCC8760894,wave1,baseline,AX,2,,0,0,104,,lo
Axcpt,DMCC8760894,wave1,baseline,BY,1,,0,0,105,lo,lo
Axcpt,DMCC8760894,wave1,baseline,AX,2,2,1,435,106,,lo
Axcpt,DMCC8760894,wave1,baseline,AX,2,2,1,332,107,,lo
Axcpt,DMCC8760894,wave1,baseline,AX,2,2,1,425,108,,lo
Axcpt,DMCC8760894,wave1,baseline,BY,1,1,1,457,109,lo,lo
Axcpt,DMCC8760894,wave1,baseline,AX,2,1,0,818,110,,lo
Axcpt,DMCC8760894,wave1,baseline,AX,2,2,1,381,111,,lo
Axcpt,DMCC8760894,wave1,baseline,BY,1,1,1,760,112,lo,lo
Axcpt,DMCC8760894,wave1,baseline,BY,1,,0,0,113,lo,lo
Axcpt,DMCC8760894,wave1,baseline,AY,1,,0,0,114,,hi
Axcpt,DMCC8760894,wave1,baseline,BY,1,1,1,494,115,lo,lo
Axcpt,DMCC8760894,wave1,baseline,BX,1,1,1,439,116,hi,hi
Axcpt,DMCC8760894,wave1,baseline,Bng,,,1,0,117,,
Axcpt,DMCC8760894,wave1,baseline,AY,1,1,1,662,118,,hi
Axcpt,DMCC8760894,wave1,baseline,AX,2,1,0,650,119,,lo
Axcpt,DMCC8760894,wave1,baseline,BY,1,1,1,447,120,lo,lo
Axcpt,DMCC8760894,wave1,baseline,Ang,,,1,0,121,,
Axcpt,DMCC8760894,wave1,baseline,AX,2,2,1,379,122,,lo
Axcpt,DMCC8760894,wave1,baseline,BY,1,1,1,481,123,lo,lo
Axcpt,DMCC8760894,wave1,baseline,BY,1,1,1,547,124,lo,lo
Axcpt,DMCC8760894,wave1,baseline,BY,1,1,1,404,125,lo,lo
Axcpt,DMCC8760894,wave1,baseline,BX,1,1,1,776,126,hi,hi
Axcpt,DMCC8760894,wave1,baseline,AX,2,1,0,460,127,,lo
Axcpt,DMCC8760894,wave1,baseline,BY,1,,0,0,128,lo,lo
Axcpt,DMCC8760894,wave1,baseline,AX,2,,0,0,129,,lo
Axcpt,DMCC8760894,wave1,baseline,AY,1,1,1,433,130,,hi
Axcpt,DMCC8760894,wave1,baseline,AY,1,1,1,515,131,,hi
Axcpt,DMCC8760894,wave1,baseline,AX,2,2,1,352,132,,lo
Axcpt,DMCC8760894,wave1,baseline,AX,2,2,1,574,133,,lo
Axcpt,DMCC8760894,wave1,baseline,BY,1,1,1,522,134,lo,lo
Axcpt,DMCC8760894,wave1,baseline,AX,2,,0,0,135,,lo
Axcpt,DMCC8760894,wave1,baseline,BY,1,,0,0,136,lo,lo
Axcpt,DMCC8760894,wave1,baseline,Bng,,,1,0,137,,
Axcpt,DMCC8760894,wave1,baseline,AX,2,2,1,490,138,,lo
Axcpt,DMCC8760894,wave1,baseline,BY,1,1,1,481,139,lo,lo
Axcpt,DMCC8760894,wave1,baseline,Bng,,,1,0,140,,
Axcpt,DMCC8760894,wave1,baseline,BX,1,1,1,594,141,hi,hi
Axcpt,DMCC8760894,wave1,baseline,AX,2,2,1,376,142,,lo
Axcpt,DMCC8760894,wave1,baseline,Ang,,,1,0,143,,
Axcpt,DMCC8760894,wave1,baseline,BY,1,,0,0,144,lo,lo
Axcpt,DMCC8760894,wave1,proactive,AY,1,1,1,558,1,,hi
Axcpt,DMCC8760894,wave1,proactive,BY,1,1,1,379,2,lo,lo
Axcpt,DMCC8760894,wave1,proactive,AX,2,2,1,367,3,,lo
Axcpt,DMCC8760894,wave1,proactive,BY,1,1,1,403,4,lo,lo
Axcpt,DMCC8760894,wave1,proactive,BY,1,1,1,432,5,lo,lo
Axcpt,DMCC8760894,wave1,proactive,AX,2,2,1,306,6,,lo
Axcpt,DMCC8760894,wave1,proactive,AX,2,2,1,383,7,,lo
Axcpt,DMCC8760894,wave1,proactive,Ang,,1,0,447,8,,
Axcpt,DMCC8760894,wave1,proactive,BX,1,1,1,359,9,hi,hi
Axcpt,DMCC8760894,wave1,proactive,BY,1,1,1,368,10,lo,lo
Axcpt,DMCC8760894,wave1,proactive,AX,2,2,1,287,11,,lo
Axcpt,DMCC8760894,wave1,proactive,AX,2,2,1,336,12,,lo
Axcpt,DMCC8760894,wave1,proactive,AX,2,2,1,389,13,,lo
Axcpt,DMCC8760894,wave1,proactive,AX,2,2,1,312,14,,lo
Axcpt,DMCC8760894,wave1,proactive,BY,1,1,1,338,15,lo,lo
Axcpt,DMCC8760894,wave1,proactive,Bng,,1,0,340,16,,
Axcpt,DMCC8760894,wave1,proactive,Bng,,,1,0,17,,
Axcpt,DMCC8760894,wave1,proactive,AY,1,1,1,521,18,,hi
Axcpt,DMCC8760894,wave1,proactive,BX,1,1,1,510,19,hi,hi
Axcpt,DMCC8760894,wave1,proactive,BY,1,1,1,503,20,lo,lo
Axcpt,DMCC8760894,wave1,proactive,BY,1,1,1,564,21,lo,lo
Axcpt,DMCC8760894,wave1,proactive,BY,1,,0,0,22,lo,lo
Axcpt,DMCC8760894,wave1,proactive,Ang,,,1,0,23,,
Axcpt,DMCC8760894,wave1,proactive,AX,2,2,1,399,24,,lo
Axcpt,DMCC8760894,wave1,proactive,AX,2,1,0,700,25,,lo
Axcpt,DMCC8760894,wave1,proactive,BX,1,2,0,434,26,hi,hi
Axcpt,DMCC8760894,wave1,proactive,AX,2,2,1,418,27,,lo
Axcpt,DMCC8760894,wave1,proactive,AX,2,2,1,304,28,,lo
Axcpt,DMCC8760894,wave1,proactive,AY,1,1,1,445,29,,hi
Axcpt,DMCC8760894,wave1,proactive,BY,1,1,1,606,30,lo,lo
Axcpt,DMCC8760894,wave1,proactive,BY,1,1,1,383,31,lo,lo
Axcpt,DMCC8760894,wave1,proactive,Bng,,,1,0,32,,
Axcpt,DMCC8760894,wave1,proactive,BY,1,1,1,421,33,lo,lo
Axcpt,DMCC8760894,wave1,proactive,AX,2,2,1,382,34,,lo
Axcpt,DMCC8760894,wave1,proactive,BY,1,1,1,417,35,lo,lo
Axcpt,DMCC8760894,wave1,proactive,AY,1,1,1,720,36,,hi
Axcpt,DMCC8760894,wave1,proactive,BX,1,1,1,651,37,hi,hi
Axcpt,DMCC8760894,wave1,proactive,AX,2,,0,0,38,,lo
Axcpt,DMCC8760894,wave1,proactive,Ang,,,1,0,39,,
Axcpt,DMCC8760894,wave1,proactive,AX,2,2,1,709,40,,lo
Axcpt,DMCC8760894,wave1,proactive,BY,1,1,1,556,41,lo,lo
Axcpt,DMCC8760894,wave1,proactive,BY,1,1,1,369,42,lo,lo
Axcpt,DMCC8760894,wave1,proactive,Ang,,,1,0,43,,
Axcpt,DMCC8760894,wave1,proactive,AX,2,1,0,541,44,,lo
Axcpt,DMCC8760894,wave1,proactive,Bng,,,1,0,45,,
Axcpt,DMCC8760894,wave1,proactive,BY,1,1,1,502,46,lo,lo
Axcpt,DMCC8760894,wave1,proactive,AX,2,1,0,452,47,,lo
Axcpt,DMCC8760894,wave1,proactive,BY,1,1,1,462,48,lo,lo
Axcpt,DMCC8760894,wave1,proactive,AX,2,2,1,337,49,,lo
Axcpt,DMCC8760894,wave1,proactive,AY,1,1,1,513,50,,hi
Axcpt,DMCC8760894,wave1,proactive,BY,1,1,1,370,51,lo,lo
Axcpt,DMCC8760894,wave1,proactive,BY,1,1,1,967,52,lo,lo
Axcpt,DMCC8760894,wave1,proactive,BY,1,1,1,329,53,lo,lo
Axcpt,DMCC8760894,wave1,proactive,BX,1,1,1,465,54,hi,hi
Axcpt,DMCC8760894,wave1,proactive,Bng,,1,0,414,55,,
Axcpt,DMCC8760894,wave1,proactive,AY,1,1,1,536,56,,hi
Axcpt,DMCC8760894,wave1,proactive,Ang,,,1,0,57,,
Axcpt,DMCC8760894,wave1,proactive,BY,1,1,1,460,58,lo,lo
Axcpt,DMCC8760894,wave1,proactive,BY,1,1,1,391,59,lo,lo
Axcpt,DMCC8760894,wave1,proactive,Ang,,,1,0,60,,
Axcpt,DMCC8760894,wave1,proactive,AX,2,2,1,319,61,,lo
Axcpt,DMCC8760894,wave1,proactive,AX,2,2,1,582,62,,lo
Axcpt,DMCC8760894,wave1,proactive,Bng,,,1,0,63,,
Axcpt,DMCC8760894,wave1,proactive,AX,2,2,1,268,64,,lo
Axcpt,DMCC8760894,wave1,proactive,AX,2,2,1,451,65,,lo
Axcpt,DMCC8760894,wave1,proactive,BY,1,1,1,646,66,lo,lo
Axcpt,DMCC8760894,wave1,proactive,AX,2,2,1,1147,67,,lo
Axcpt,DMCC8760894,wave1,proactive,AX,2,2,1,593,68,,lo
Axcpt,DMCC8760894,wave1,proactive,AX,2,2,1,373,69,,lo
Axcpt,DMCC8760894,wave1,proactive,BX,1,1,1,795,70,hi,hi
Axcpt,DMCC8760894,wave1,proactive,BY,1,1,1,598,71,lo,lo
Axcpt,DMCC8760894,wave1,proactive,BY,1,1,1,533,72,lo,lo
Axcpt,DMCC8760894,wave1,proactive,AX,2,2,1,282,73,,lo
Axcpt,DMCC8760894,wave1,proactive,AX,2,2,1,370,74,,lo
Axcpt,DMCC8760894,wave1,proactive,BY,1,1,1,370,75,lo,lo
Axcpt,DMCC8760894,wave1,proactive,AX,2,2,1,380,76,,lo
Axcpt,DMCC8760894,wave1,proactive,Ang,,,1,0,77,,
Axcpt,DMCC8760894,wave1,proactive,AX,2,2,1,363,78,,lo
Axcpt,DMCC8760894,wave1,proactive,BY,1,1,1,390,79,lo,lo
Axcpt,DMCC8760894,wave1,proactive,BX,1,1,1,535,80,hi,hi
Axcpt,DMCC8760894,wave1,proactive,AY,1,1,1,453,81,,hi
Axcpt,DMCC8760894,wave1,proactive,BY,1,1,1,400,82,lo,lo
Axcpt,DMCC8760894,wave1,proactive,AX,2,2,1,304,83,,lo
Axcpt,DMCC8760894,wave1,proactive,AX,2,2,1,472,84,,lo
Axcpt,DMCC8760894,wave1,proactive,BY,1,1,1,388,85,lo,lo
Axcpt,DMCC8760894,wave1,proactive,Bng,,,1,0,86,,
Axcpt,DMCC8760894,wave1,proactive,BY,1,1,1,432,87,lo,lo
Axcpt,DMCC8760894,wave1,proactive,AX,2,2,1,409,88,,lo
Axcpt,DMCC8760894,wave1,proactive,BX,1,1,1,648,89,hi,hi
Axcpt,DMCC8760894,wave1,proactive,Ang,,2,0,210,90,,
Axcpt,DMCC8760894,wave1,proactive,AX,2,2,1,402,91,,lo
Axcpt,DMCC8760894,wave1,proactive,Bng,,,1,0,92,,
Axcpt,DMCC8760894,wave1,proactive,BY,1,,0,0,93,lo,lo
Axcpt,DMCC8760894,wave1,proactive,BY,1,1,1,412,94,lo,lo
Axcpt,DMCC8760894,wave1,proactive,BY,1,1,1,701,95,lo,lo
Axcpt,DMCC8760894,wave1,proactive,AY,1,1,1,525,96,,hi
Axcpt,DMCC8760894,wave1,proactive,BY,1,1,1,320,97,lo,lo
Axcpt,DMCC8760894,wave1,proactive,BY,1,1,1,693,98,lo,lo
Axcpt,DMCC8760894,wave1,proactive,AX,2,2,1,305,99,,lo
Axcpt,DMCC8760894,wave1,proactive,AY,1,1,1,455,100,,hi
Axcpt,DMCC8760894,wave1,proactive,AX,2,2,1,219,101,,lo
Axcpt,DMCC8760894,wave1,proactive,BX,1,1,1,346,102,hi,hi
Axcpt,DMCC8760894,wave1,proactive,AX,2,2,1,351,103,,lo
Axcpt,DMCC8760894,wave1,proactive,BY,1,1,1,378,104,lo,lo
Axcpt,DMCC8760894,wave1,proactive,BX,1,1,1,652,105,hi,hi
Axcpt,DMCC8760894,wave1,proactive,BY,1,1,1,346,106,lo,lo
Axcpt,DMCC8760894,wave1,proactive,BY,1,1,1,261,107,lo,lo
Axcpt,DMCC8760894,wave1,proactive,AX,2,2,1,317,108,,lo
Axcpt,DMCC8760894,wave1,proactive,AX,2,1,0,524,109,,lo
Axcpt,DMCC8760894,wave1,proactive,Ang,,,1,0,110,,
Axcpt,DMCC8760894,wave1,proactive,AY,1,1,1,416,111,,hi
Axcpt,DMCC8760894,wave1,proactive,Bng,,,1,0,112,,
Axcpt,DMCC8760894,wave1,proactive,BY,1,1,1,438,113,lo,lo
Axcpt,DMCC8760894,wave1,proactive,AX,2,2,1,373,114,,lo
Axcpt,DMCC8760894,wave1,proactive,BY,1,,0,0,115,lo,lo
Axcpt,DMCC8760894,wave1,proactive,Bng,,,1,0,116,,
Axcpt,DMCC8760894,wave1,proactive,BY,1,,0,0,117,lo,lo
Axcpt,DMCC8760894,wave1,proactive,AX,2,2,1,318,118,,lo
Axcpt,DMCC8760894,wave1,proactive,AX,2,2,1,669,119,,lo
Axcpt,DMCC8760894,wave1,proactive,Ang,,,1,0,120,,
Axcpt,DMCC8760894,wave1,proactive,BY,1,1,1,336,121,lo,lo
Axcpt,DMCC8760894,wave1,proactive,BY,1,1,1,444,122,lo,lo
Axcpt,DMCC8760894,wave1,proactive,BY,1,1,1,482,123,lo,lo
Axcpt,DMCC8760894,wave1,proactive,AX,2,2,1,324,124,,lo
Axcpt,DMCC8760894,wave1,proactive,Ang,,,1,0,125,,
Axcpt,DMCC8760894,wave1,proactive,AX,2,2,1,539,126,,lo
Axcpt,DMCC8760894,wave1,proactive,AY,1,1,1,615,127,,hi
Axcpt,DMCC8760894,wave1,proactive,AX,2,2,1,376,128,,lo
Axcpt,DMCC8760894,wave1,proactive,AX,2,1,0,718,129,,lo
Axcpt,DMCC8760894,wave1,proactive,AX,2,2,1,304,130,,lo
Axcpt,DMCC8760894,wave1,proactive,AX,2,2,1,403,131,,lo
Axcpt,DMCC8760894,wave1,proactive,BY,1,1,1,483,132,lo,lo
Axcpt,DMCC8760894,wave1,proactive,Ang,,,1,0,133,,
Axcpt,DMCC8760894,wave1,proactive,AX,2,1,0,360,134,,lo
Axcpt,DMCC8760894,wave1,proactive,BY,1,1,1,341,135,lo,lo
Axcpt,DMCC8760894,wave1,proactive,BY,1,1,1,468,136,lo,lo
Axcpt,DMCC8760894,wave1,proactive,BX,1,1,1,668,137,hi,hi
Axcpt,DMCC8760894,wave1,proactive,Bng,,,1,0,138,,
Axcpt,DMCC8760894,wave1,proactive,Bng,,,1,0,139,,
Axcpt,DMCC8760894,wave1,proactive,BX,1,1,1,391,140,hi,hi
Axcpt,DMCC8760894,wave1,proactive,BY,1,1,1,411,141,lo,lo
Axcpt,DMCC8760894,wave1,proactive,BY,1,1,1,436,142,lo,lo
Axcpt,DMCC8760894,wave1,proactive,AY,1,1,1,539,143,,hi
Axcpt,DMCC8760894,wave1,proactive,AX,2,1,0,591,144,,lo
Axcpt,DMCC8760894,wave1,reactive,AX,2,2,1,295,1,,lo
Axcpt,DMCC8760894,wave1,reactive,AX,2,2,1,311,2,,lo
Axcpt,DMCC8760894,wave1,reactive,BX,1,1,1,493,3,hi,hi
Axcpt,DMCC8760894,wave1,reactive,AY,1,1,1,622,4,,hi
Axcpt,DMCC8760894,wave1,reactive,BY,1,1,1,401,5,lo,lo
Axcpt,DMCC8760894,wave1,reactive,Bng,,,1,0,6,,
Axcpt,DMCC8760894,wave1,reactive,AX,2,2,1,434,7,,lo
Axcpt,DMCC8760894,wave1,reactive,AX,2,2,1,450,8,,lo
Axcpt,DMCC8760894,wave1,reactive,Bng,,,1,0,9,,
Axcpt,DMCC8760894,wave1,reactive,AY,1,1,1,443,10,,hi
Axcpt,DMCC8760894,wave1,reactive,BY,1,1,1,553,11,lo,lo
Axcpt,DMCC8760894,wave1,reactive,BY,1,1,1,535,12,lo,lo
Axcpt,DMCC8760894,wave1,reactive,Ang,,,1,0,13,,
Axcpt,DMCC8760894,wave1,reactive,AX,2,2,1,435,14,,lo
Axcpt,DMCC8760894,wave1,reactive,Ang,,,1,0,15,,
Axcpt,DMCC8760894,wave1,reactive,BX,1,1,1,424,16,hi,hi
Axcpt,DMCC8760894,wave1,reactive,AX,2,2,1,432,17,,lo
Axcpt,DMCC8760894,wave1,reactive,BY,1,1,1,590,18,lo,lo
Axcpt,DMCC8760894,wave1,reactive,BY,1,1,1,519,19,lo,lo
Axcpt,DMCC8760894,wave1,reactive,AX,2,,0,0,20,,lo
Axcpt,DMCC8760894,wave1,reactive,BY,1,,0,0,21,lo,lo
Axcpt,DMCC8760894,wave1,reactive,AX,2,2,1,361,22,,lo
Axcpt,DMCC8760894,wave1,reactive,BY,1,1,1,432,23,lo,lo
Axcpt,DMCC8760894,wave1,reactive,BY,1,1,1,481,24,lo,lo
Axcpt,DMCC8760894,wave1,reactive,AX,2,1,0,624,25,,lo
Axcpt,DMCC8760894,wave1,reactive,BY,1,1,1,505,26,lo,lo
Axcpt,DMCC8760894,wave1,reactive,BX,1,1,1,470,27,hi,hi
Axcpt,DMCC8760894,wave1,reactive,AY,1,1,1,431,28,,hi
Axcpt,DMCC8760894,wave1,reactive,AX,2,1,0,454,29,,lo
Axcpt,DMCC8760894,wave1,reactive,BY,1,1,1,598,30,lo,lo
Axcpt,DMCC8760894,wave1,reactive,BY,1,1,1,376,31,lo,lo
Axcpt,DMCC8760894,wave1,reactive,AX,2,2,1,391,32,,lo
Axcpt,DMCC8760894,wave1,reactive,BY,1,1,1,537,33,lo,lo
Axcpt,DMCC8760894,wave1,reactive,AY,1,1,1,611,34,,hi
Axcpt,DMCC8760894,wave1,reactive,AX,2,2,1,1022,35,,lo
Axcpt,DMCC8760894,wave1,reactive,AX,2,1,0,808,36,,lo
Axcpt,DMCC8760894,wave1,reactive,AX,2,2,1,757,37,,lo
Axcpt,DMCC8760894,wave1,reactive,BY,1,1,1,784,38,lo,lo
Axcpt,DMCC8760894,wave1,reactive,Bng,,,1,0,39,,
Axcpt,DMCC8760894,wave1,reactive,BX,1,1,1,468,40,hi,hi
Axcpt,DMCC8760894,wave1,reactive,AX,2,2,1,578,41,,lo
Axcpt,DMCC8760894,wave1,reactive,BY,1,1,1,652,42,lo,lo
Axcpt,DMCC8760894,wave1,reactive,Ang,,,1,0,43,,
Axcpt,DMCC8760894,wave1,reactive,Ang,,,1,0,44,,
Axcpt,DMCC8760894,wave1,reactive,BY,1,1,1,599,45,lo,lo
Axcpt,DMCC8760894,wave1,reactive,Bng,,,1,0,46,,
Axcpt,DMCC8760894,wave1,reactive,BY,1,,0,0,47,lo,lo
Axcpt,DMCC8760894,wave1,reactive,AX,2,,0,0,48,,lo
Axcpt,DMCC8760894,wave1,reactive,BY,1,1,1,429,49,lo,lo
Axcpt,DMCC8760894,wave1,reactive,Ang,,,1,0,50,,
Axcpt,DMCC8760894,wave1,reactive,AX,2,1,0,746,51,,lo
Axcpt,DMCC8760894,wave1,reactive,Bng,,,1,0,52,,
Axcpt,DMCC8760894,wave1,reactive,AX,2,2,1,504,53,,lo
Axcpt,DMCC8760894,wave1,reactive,BY,1,1,1,473,54,lo,lo
Axcpt,DMCC8760894,wave1,reactive,BY,1,1,1,504,55,lo,lo
Axcpt,DMCC8760894,wave1,reactive,AY,1,1,1,642,56,,hi
Axcpt,DMCC8760894,wave1,reactive,BY,1,1,1,433,57,lo,lo
Axcpt,DMCC8760894,wave1,reactive,AX,2,2,1,638,58,,lo
Axcpt,DMCC8760894,wave1,reactive,AY,1,1,1,550,59,,hi
Axcpt,DMCC8760894,wave1,reactive,BY,1,1,1,656,60,lo,lo
Axcpt,DMCC8760894,wave1,reactive,AX,2,,0,0,61,,lo
Axcpt,DMCC8760894,wave1,reactive,AX,2,2,1,612,62,,lo
Axcpt,DMCC8760894,wave1,reactive,Ang,,,1,0,63,,
Axcpt,DMCC8760894,wave1,reactive,Bng,,,1,0,64,,
Axcpt,DMCC8760894,wave1,reactive,AX,2,1,0,852,65,,lo
Axcpt,DMCC8760894,wave1,reactive,AX,2,1,0,162,66,,lo
Axcpt,DMCC8760894,wave1,reactive,BY,1,,0,0,67,lo,lo
Axcpt,DMCC8760894,wave1,reactive,AX,2,2,1,639,68,,lo
Axcpt,DMCC8760894,wave1,reactive,BX,1,,0,0,69,hi,hi
Axcpt,DMCC8760894,wave1,reactive,BY,1,1,1,483,70,lo,lo
Axcpt,DMCC8760894,wave1,reactive,BX,1,1,1,555,71,hi,hi
Axcpt,DMCC8760894,wave1,reactive,BY,1,1,1,524,72,lo,lo
Axcpt,DMCC8760894,wave1,reactive,Bng,,,1,0,73,,
Axcpt,DMCC8760894,wave1,reactive,AX,2,1,0,514,74,,lo
Axcpt,DMCC8760894,wave1,reactive,AX,2,1,0,697,75,,lo
Axcpt,DMCC8760894,wave1,reactive,AY,1,1,1,481,76,,hi
Axcpt,DMCC8760894,wave1,reactive,BY,1,1,1,466,77,lo,lo
Axcpt,DMCC8760894,wave1,reactive,BY,1,1,1,623,78,lo,lo
Axcpt,DMCC8760894,wave1,reactive,Ang,,,1,0,79,,
Axcpt,DMCC8760894,wave1,reactive,AX,2,2,1,865,80,,lo
Axcpt,DMCC8760894,wave1,reactive,BY,1,1,1,674,81,lo,lo
Axcpt,DMCC8760894,wave1,reactive,BY,1,,0,0,82,lo,lo
Axcpt,DMCC8760894,wave1,reactive,AX,2,2,1,396,83,,lo
Axcpt,DMCC8760894,wave1,reactive,AX,2,2,1,394,84,,lo
Axcpt,DMCC8760894,wave1,reactive,Bng,,,1,0,85,,
Axcpt,DMCC8760894,wave1,reactive,Ang,,,1,0,86,,
Axcpt,DMCC8760894,wave1,reactive,AX,2,1,0,429,87,,lo
Axcpt,DMCC8760894,wave1,reactive,BY,1,1,1,386,88,lo,lo
Axcpt,DMCC8760894,wave1,reactive,BX,1,1,1,568,89,hi,hi
Axcpt,DMCC8760894,wave1,reactive,AY,1,,0,0,90,,hi
Axcpt,DMCC8760894,wave1,reactive,BX,1,1,1,459,91,hi,hi
Axcpt,DMCC8760894,wave1,reactive,BY,1,1,1,548,92,lo,lo
Axcpt,DMCC8760894,wave1,reactive,AX,2,2,1,131,93,,lo
Axcpt,DMCC8760894,wave1,reactive,BY,1,1,1,504,94,lo,lo
Axcpt,DMCC8760894,wave1,reactive,AX,2,,0,0,95,,lo
Axcpt,DMCC8760894,wave1,reactive,BY,1,,0,0,96,lo,lo
Axcpt,DMCC8760894,wave1,reactive,AX,2,,0,0,97,,lo
Axcpt,DMCC8760894,wave1,reactive,BY,1,,0,0,98,lo,lo
Axcpt,DMCC8760894,wave1,reactive,AX,2,,0,0,99,,lo
Axcpt,DMCC8760894,wave1,reactive,BY,1,1,1,851,100,lo,lo
Axcpt,DMCC8760894,wave1,reactive,Bng,,1,0,527,101,,
Axcpt,DMCC8760894,wave1,reactive,AX,2,2,1,427,102,,lo
Axcpt,DMCC8760894,wave1,reactive,BY,1,,0,0,103,lo,lo
Axcpt,DMCC8760894,wave1,reactive,Bng,,,1,0,104,,
Axcpt,DMCC8760894,wave1,reactive,AX,2,,0,0,105,,lo
Axcpt,DMCC8760894,wave1,reactive,BY,1,,0,0,106,lo,lo
Axcpt,DMCC8760894,wave1,reactive,BY,1,,0,0,107,lo,lo
Axcpt,DMCC8760894,wave1,reactive,BX,1,,0,0,108,hi,hi
Axcpt,DMCC8760894,wave1,reactive,BY,1,1,1,396,109,lo,lo
Axcpt,DMCC8760894,wave1,reactive,AX,2,1,0,610,110,,lo
Axcpt,DMCC8760894,wave1,reactive,Ang,,,1,0,111,,
Axcpt,DMCC8760894,wave1,reactive,BY,1,,0,0,112,lo,lo
Axcpt,DMCC8760894,wave1,reactive,AX,2,2,1,575,113,,lo
Axcpt,DMCC8760894,wave1,reactive,AX,2,2,1,655,114,,lo
Axcpt,DMCC8760894,wave1,reactive,BX,1,,0,0,115,hi,hi
Axcpt,DMCC8760894,wave1,reactive,BY,1,1,1,546,116,lo,lo
Axcpt,DMCC8760894,wave1,reactive,AY,1,,0,0,117,,hi
Axcpt,DMCC8760894,wave1,reactive,AX,2,,0,0,118,,lo
Axcpt,DMCC8760894,wave1,reactive,AY,1,,0,0,119,,hi
Axcpt,DMCC8760894,wave1,reactive,Ang,,,1,0,120,,
Axcpt,DMCC8760894,wave1,reactive,AY,1,1,1,708,121,,hi
Axcpt,DMCC8760894,wave1,reactive,BY,1,1,1,457,122,lo,lo
Axcpt,DMCC8760894,wave1,reactive,BY,1,1,1,443,123,lo,lo
Axcpt,DMCC8760894,wave1,reactive,Bng,,,1,0,124,,
Axcpt,DMCC8760894,wave1,reactive,BY,1,,0,0,125,lo,lo
Axcpt,DMCC8760894,wave1,reactive,AX,2,2,1,741,126,,lo
Axcpt,DMCC8760894,wave1,reactive,BY,1,1,1,451,127,lo,lo
Axcpt,DMCC8760894,wave1,reactive,Ang,,,1,0,128,,
Axcpt,DMCC8760894,wave1,reactive,AX,2,2,1,675,129,,lo
Axcpt,DMCC8760894,wave1,reactive,AX,2,2,1,713,130,,lo
Axcpt,DMCC8760894,wave1,reactive,AX,2,2,1,1019,131,,lo
Axcpt,DMCC8760894,wave1,reactive,BY,1,,0,0,132,lo,lo
Axcpt,DMCC8760894,wave1,reactive,BY,1,,0,0,133,lo,lo
Axcpt,DMCC8760894,wave1,reactive,BY,1,1,1,668,134,lo,lo
Axcpt,DMCC8760894,wave1,reactive,AY,1,1,1,470,135,,hi
Axcpt,DMCC8760894,wave1,reactive,BY,1,,0,0,136,lo,lo
Axcpt,DMCC8760894,wave1,reactive,BX,1,1,1,405,137,hi,hi
Axcpt,DMCC8760894,wave1,reactive,Bng,,,1,0,138,,
Axcpt,DMCC8760894,wave1,reactive,BX,1,2,0,732,139,hi,hi
Axcpt,DMCC8760894,wave1,reactive,AX,2,2,1,432,140,,lo
Axcpt,DMCC8760894,wave1,reactive,AX,2,1,0,434,141,,lo
Axcpt,DMCC8760894,wave1,reactive,AX,2,2,1,797,142,,lo
Axcpt,DMCC8760894,wave1,reactive,AX,2,,0,0,143,,lo
Axcpt,DMCC8760894,wave1,reactive,Ang,,,1,0,144,,
Axcpt,DMCC8760894,wave3,baseline,BY,1,1,1,434,1,lo,lo
Axcpt,DMCC8760894,wave3,baseline,Ang,,,1,0,2,,
Axcpt,DMCC8760894,wave3,baseline,BX,1,1,1,348,3,hi,hi
Axcpt,DMCC8760894,wave3,baseline,AX,2,2,1,301,4,,lo
Axcpt,DMCC8760894,wave3,baseline,AX,2,2,1,392,5,,lo
Axcpt,DMCC8760894,wave3,baseline,BY,1,1,1,365,6,lo,lo
Axcpt,DMCC8760894,wave3,baseline,BY,1,1,1,400,7,lo,lo
Axcpt,DMCC8760894,wave3,baseline,AX,2,2,1,356,8,,lo
Axcpt,DMCC8760894,wave3,baseline,AY,1,1,1,418,9,,hi
Axcpt,DMCC8760894,wave3,baseline,AX,2,1,0,328,10,,lo
Axcpt,DMCC8760894,wave3,baseline,AX,2,2,1,376,11,,lo
Axcpt,DMCC8760894,wave3,baseline,AY,1,1,1,463,12,,hi
Axcpt,DMCC8760894,wave3,baseline,BX,1,1,1,570,13,hi,hi
Axcpt,DMCC8760894,wave3,baseline,AX,2,2,1,446,14,,lo
Axcpt,DMCC8760894,wave3,baseline,Bng,,,1,0,15,,
Axcpt,DMCC8760894,wave3,baseline,BY,1,1,1,340,16,lo,lo
Axcpt,DMCC8760894,wave3,baseline,Bng,,,1,0,17,,
Axcpt,DMCC8760894,wave3,baseline,BY,1,1,1,359,18,lo,lo
Axcpt,DMCC8760894,wave3,baseline,AX,2,2,1,389,19,,lo
Axcpt,DMCC8760894,wave3,baseline,Ang,,,1,0,20,,
Axcpt,DMCC8760894,wave3,baseline,AX,2,2,1,353,21,,lo
Axcpt,DMCC8760894,wave3,baseline,BY,1,1,1,410,22,lo,lo
Axcpt,DMCC8760894,wave3,baseline,BY,1,1,1,313,23,lo,lo
Axcpt,DMCC8760894,wave3,baseline,BY,1,1,1,437,24,lo,lo
Axcpt,DMCC8760894,wave3,baseline,AX,2,2,1,294,25,,lo
Axcpt,DMCC8760894,wave3,baseline,BY,1,1,1,359,26,lo,lo
Axcpt,DMCC8760894,wave3,baseline,AY,1,1,1,334,27,,hi
Axcpt,DMCC8760894,wave3,baseline,Ang,,,1,0,28,,
Axcpt,DMCC8760894,wave3,baseline,BY,1,1,1,341,29,lo,lo
Axcpt,DMCC8760894,wave3,baseline,BY,1,1,1,306,30,lo,lo
Axcpt,DMCC8760894,wave3,baseline,AX,2,1,0,445,31,,lo
Axcpt,DMCC8760894,wave3,baseline,BY,1,1,1,436,32,lo,lo
Axcpt,DMCC8760894,wave3,baseline,Ang,,,1,0,33,,
Axcpt,DMCC8760894,wave3,baseline,BY,1,1,1,340,34,lo,lo
Axcpt,DMCC8760894,wave3,baseline,BY,1,1,1,343,35,lo,lo
Axcpt,DMCC8760894,wave3,baseline,AX,2,2,1,374,36,,lo
Axcpt,DMCC8760894,wave3,baseline,AX,2,2,1,470,37,,lo
Axcpt,DMCC8760894,wave3,baseline,BX,1,1,1,359,38,hi,hi
Axcpt,DMCC8760894,wave3,baseline,AX,2,2,1,404,39,,lo
Axcpt,DMCC8760894,wave3,baseline,AX,2,2,1,406,40,,lo
Axcpt,DMCC8760894,wave3,baseline,AY,1,1,1,431,41,,hi
Axcpt,DMCC8760894,wave3,baseline,AX,2,1,0,318,42,,lo
Axcpt,DMCC8760894,wave3,baseline,BY,1,1,1,418,43,lo,lo
Axcpt,DMCC8760894,wave3,baseline,BY,1,1,1,405,44,lo,lo
Axcpt,DMCC8760894,wave3,baseline,Bng,,,1,0,45,,
Axcpt,DMCC8760894,wave3,baseline,AX,2,2,1,547,46,,lo
Axcpt,DMCC8760894,wave3,baseline,Bng,,,1,0,47,,
Axcpt,DMCC8760894,wave3,baseline,BX,1,1,1,631,48,hi,hi
Axcpt,DMCC8760894,wave3,baseline,Ang,,,1,0,49,,
Axcpt,DMCC8760894,wave3,baseline,AX,2,2,1,263,50,,lo
Axcpt,DMCC8760894,wave3,baseline,BY,1,1,1,490,51,lo,lo
Axcpt,DMCC8760894,wave3,baseline,Bng,,,1,0,52,,
Axcpt,DMCC8760894,wave3,baseline,AX,2,2,1,490,53,,lo
Axcpt,DMCC8760894,wave3,baseline,Bng,,,1,0,54,,
Axcpt,DMCC8760894,wave3,baseline,AX,2,,0,0,55,,lo
Axcpt,DMCC8760894,wave3,baseline,BY,1,1,1,407,56,lo,lo
Axcpt,DMCC8760894,wave3,baseline,Ang,,,1,0,57,,
Axcpt,DMCC8760894,wave3,baseline,BX,1,1,1,484,58,hi,hi
Axcpt,DMCC8760894,wave3,baseline,AY,1,1,1,482,59,,hi
Axcpt,DMCC8760894,wave3,baseline,BY,1,1,1,348,60,lo,lo
Axcpt,DMCC8760894,wave3,baseline,AX,2,1,0,438,61,,lo
Axcpt,DMCC8760894,wave3,baseline,BX,1,,0,0,62,hi,hi
Axcpt,DMCC8760894,wave3,baseline,BY,1,1,1,837,63,lo,lo
Axcpt,DMCC8760894,wave3,baseline,BY,1,1,1,679,64,lo,lo
Axcpt,DMCC8760894,wave3,baseline,BY,1,1,1,354,65,lo,lo
Axcpt,DMCC8760894,wave3,baseline,AX,2,1,0,292,66,,lo
Axcpt,DMCC8760894,wave3,baseline,AX,2,2,1,323,67,,lo
Axcpt,DMCC8760894,wave3,baseline,AX,2,2,1,334,68,,lo
Axcpt,DMCC8760894,wave3,baseline,BY,1,1,1,421,69,lo,lo
Axcpt,DMCC8760894,wave3,baseline,BY,1,1,1,419,70,lo,lo
Axcpt,DMCC8760894,wave3,baseline,AX,2,2,1,340,71,,lo
Axcpt,DMCC8760894,wave3,baseline,AY,1,,0,0,72,,hi
Axcpt,DMCC8760894,wave3,baseline,AX,2,2,1,282,73,,lo
Axcpt,DMCC8760894,wave3,baseline,BY,1,1,1,410,74,lo,lo
Axcpt,DMCC8760894,wave3,baseline,AX,2,2,1,343,75,,lo
Axcpt,DMCC8760894,wave3,baseline,BY,1,1,1,363,76,lo,lo
Axcpt,DMCC8760894,wave3,baseline,BY,1,,0,0,77,lo,lo
Axcpt,DMCC8760894,wave3,baseline,BX,1,1,1,348,78,hi,hi
Axcpt,DMCC8760894,wave3,baseline,AX,2,2,1,324,79,,lo
Axcpt,DMCC8760894,wave3,baseline,Bng,,1,0,98,80,,
Axcpt,DMCC8760894,wave3,baseline,Bng,,,1,0,81,,
Axcpt,DMCC8760894,wave3,baseline,BY,1,1,1,388,82,lo,lo
Axcpt,DMCC8760894,wave3,baseline,AX,2,2,1,481,83,,lo
Axcpt,DMCC8760894,wave3,baseline,BY,1,1,1,263,84,lo,lo
Axcpt,DMCC8760894,wave3,baseline,BY,1,1,1,817,85,lo,lo
Axcpt,DMCC8760894,wave3,baseline,AX,2,,0,0,86,,lo
Axcpt,DMCC8760894,wave3,baseline,BX,1,,0,0,87,hi,hi
Axcpt,DMCC8760894,wave3,baseline,AX,2,2,1,277,88,,lo
Axcpt,DMCC8760894,wave3,baseline,AX,2,1,0,361,89,,lo
Axcpt,DMCC8760894,wave3,baseline,AY,1,1,1,462,90,,hi
Axcpt,DMCC8760894,wave3,baseline,AY,1,1,1,380,91,,hi
Axcpt,DMCC8760894,wave3,baseline,AX,2,2,1,467,92,,lo
Axcpt,DMCC8760894,wave3,baseline,BY,1,1,1,511,93,lo,lo
Axcpt,DMCC8760894,wave3,baseline,Ang,,,1,0,94,,
Axcpt,DMCC8760894,wave3,baseline,BY,1,1,1,320,95,lo,lo
Axcpt,DMCC8760894,wave3,baseline,Ang,,1,0,130,96,,
Axcpt,DMCC8760894,wave3,baseline,Bng,,,1,0,97,,
Axcpt,DMCC8760894,wave3,baseline,BY,1,1,1,733,98,lo,lo
Axcpt,DMCC8760894,wave3,baseline,AX,2,,0,0,99,,lo
Axcpt,DMCC8760894,wave3,baseline,BY,1,1,1,387,100,lo,lo
Axcpt,DMCC8760894,wave3,baseline,AX,2,,0,0,101,,lo
Axcpt,DMCC8760894,wave3,baseline,BY,1,1,1,722,102,lo,lo
Axcpt,DMCC8760894,wave3,baseline,BY,1,1,1,364,103,lo,lo
Axcpt,DMCC8760894,wave3,baseline,BX,1,,0,0,104,hi,hi
Axcpt,DMCC8760894,wave3,baseline,Ang,,,1,0,105,,
Axcpt,DMCC8760894,wave3,baseline,BY,1,1,1,545,106,lo,lo
Axcpt,DMCC8760894,wave3,baseline,Ang,,,1,0,107,,
Axcpt,DMCC8760894,wave3,baseline,AX,2,2,1,488,108,,lo
Axcpt,DMCC8760894,wave3,baseline,AY,1,1,1,343,109,,hi
Axcpt,DMCC8760894,wave3,baseline,BY,1,1,1,406,110,lo,lo
Axcpt,DMCC8760894,wave3,baseline,AX,2,1,0,402,111,,lo
Axcpt,DMCC8760894,wave3,baseline,AX,2,,0,0,112,,lo
Axcpt,DMCC8760894,wave3,baseline,AX,2,2,1,489,113,,lo
Axcpt,DMCC8760894,wave3,baseline,BY,1,1,1,489,114,lo,lo
Axcpt,DMCC8760894,wave3,baseline,AX,2,1,0,441,115,,lo
Axcpt,DMCC8760894,wave3,baseline,AY,1,,0,0,116,,hi
Axcpt,DMCC8760894,wave3,baseline,AX,2,1,0,663,117,,lo
Axcpt,DMCC8760894,wave3,baseline,Bng,,1,0,802,118,,
Axcpt,DMCC8760894,wave3,baseline,BX,1,2,0,626,119,hi,hi
Axcpt,DMCC8760894,wave3,baseline,BY,1,,0,0,120,lo,lo
Axcpt,DMCC8760894,wave3,baseline,BY,1,1,1,415,121,lo,lo
Axcpt,DMCC8760894,wave3,baseline,BX,1,1,1,493,122,hi,hi
Axcpt,DMCC8760894,wave3,baseline,Bng,,,1,0,123,,
Axcpt,DMCC8760894,wave3,baseline,AX,2,2,1,325,124,,lo
Axcpt,DMCC8760894,wave3,baseline,AX,2,2,1,568,125,,lo
Axcpt,DMCC8760894,wave3,baseline,AX,2,,0,0,126,,lo
Axcpt,DMCC8760894,wave3,baseline,Bng,,,1,0,127,,
Axcpt,DMCC8760894,wave3,baseline,BY,1,1,1,415,128,lo,lo
Axcpt,DMCC8760894,wave3,baseline,BY,1,,0,0,129,lo,lo
Axcpt,DMCC8760894,wave3,baseline,AX,2,2,1,300,130,,lo
Axcpt,DMCC8760894,wave3,baseline,AY,1,1,1,382,131,,hi
Axcpt,DMCC8760894,wave3,baseline,AX,2,,0,0,132,,lo
Axcpt,DMCC8760894,wave3,baseline,BY,1,,0,0,133,lo,lo
Axcpt,DMCC8760894,wave3,baseline,BY,1,,0,0,134,lo,lo
Axcpt,DMCC8760894,wave3,baseline,AX,2,,0,0,135,,lo
Axcpt,DMCC8760894,wave3,baseline,BY,1,1,1,352,136,lo,lo
Axcpt,DMCC8760894,wave3,baseline,BY,1,,0,0,137,lo,lo
Axcpt,DMCC8760894,wave3,baseline,AX,2,2,1,366,138,,lo
Axcpt,DMCC8760894,wave3,baseline,Ang,,,1,0,139,,
Axcpt,DMCC8760894,wave3,baseline,BY,1,,0,0,140,lo,lo
Axcpt,DMCC8760894,wave3,baseline,BX,1,,0,0,141,hi,hi
Axcpt,DMCC8760894,wave3,baseline,Ang,,,1,0,142,,
Axcpt,DMCC8760894,wave3,baseline,AX,2,,0,0,143,,lo
Axcpt,DMCC8760894,wave3,baseline,AY,1,1,1,484,144,,hi
Axcpt,DMCC8760894,wave3,proactive,BY,1,1,1,201,1,lo,lo
Axcpt,DMCC8760894,wave3,proactive,AY,1,2,0,27,2,,hi
Axcpt,DMCC8760894,wave3,proactive,AY,1,2,0,26,3,,hi
Axcpt,DMCC8760894,wave3,proactive,Ang,,2,0,262,4,,
Axcpt,DMCC8760894,wave3,proactive,AX,2,2,1,276,5,,lo
Axcpt,DMCC8760894,wave3,proactive,AX,2,2,1,285,6,,lo
Axcpt,DMCC8760894,wave3,proactive,BY,1,1,1,328,7,lo,lo
Axcpt,DMCC8760894,wave3,proactive,AX,2,2,1,307,8,,lo
Axcpt,DMCC8760894,wave3,proactive,Bng,,,1,0,9,,
Axcpt,DMCC8760894,wave3,proactive,AX,2,2,1,281,10,,lo
Axcpt,DMCC8760894,wave3,proactive,BX,1,1,1,365,11,hi,hi
Axcpt,DMCC8760894,wave3,proactive,AX,2,2,1,280,12,,lo
Axcpt,DMCC8760894,wave3,proactive,BY,1,1,1,323,13,lo,lo
Axcpt,DMCC8760894,wave3,proactive,BY,1,1,1,440,14,lo,lo
Axcpt,DMCC8760894,wave3,proactive,AX,2,1,0,369,15,,lo
Axcpt,DMCC8760894,wave3,proactive,AX,2,2,1,336,16,,lo
Axcpt,DMCC8760894,wave3,proactive,BY,1,1,1,152,17,lo,lo
Axcpt,DMCC8760894,wave3,proactive,BY,1,1,1,312,18,lo,lo
Axcpt,DMCC8760894,wave3,proactive,Bng,,,1,0,19,,
Axcpt,DMCC8760894,wave3,proactive,BX,1,2,0,380,20,hi,hi
Axcpt,DMCC8760894,wave3,proactive,Ang,,,1,0,21,,
Axcpt,DMCC8760894,wave3,proactive,AX,2,2,1,280,22,,lo
Axcpt,DMCC8760894,wave3,proactive,BY,1,1,1,430,23,lo,lo
Axcpt,DMCC8760894,wave3,proactive,BY,1,1,1,408,24,lo,lo
Axcpt,DMCC8760894,wave3,proactive,Ang,,2,0,87,25,,
Axcpt,DMCC8760894,wave3,proactive,AY,1,2,0,537,26,,hi
Axcpt,DMCC8760894,wave3,proactive,Bng,,,1,0,27,,
Axcpt,DMCC8760894,wave3,proactive,BY,1,1,1,344,28,lo,lo
Axcpt,DMCC8760894,wave3,proactive,Bng,,,1,0,29,,
Axcpt,DMCC8760894,wave3,proactive,BY,1,1,1,431,30,lo,lo
Axcpt,DMCC8760894,wave3,proactive,AX,2,2,1,53,31,,lo
Axcpt,DMCC8760894,wave3,proactive,AX,2,2,1,258,32,,lo
Axcpt,DMCC8760894,wave3,proactive,BY,1,1,1,499,33,lo,lo
Axcpt,DMCC8760894,wave3,proactive,AX,2,2,1,185,34,,lo
Axcpt,DMCC8760894,wave3,proactive,AX,2,2,1,499,35,,lo
Axcpt,DMCC8760894,wave3,proactive,BY,1,1,1,548,36,lo,lo
Axcpt,DMCC8760894,wave3,proactive,BY,1,1,1,339,37,lo,lo
Axcpt,DMCC8760894,wave3,proactive,AX,2,2,1,903,38,,lo
Axcpt,DMCC8760894,wave3,proactive,BX,1,1,1,365,39,hi,hi
Axcpt,DMCC8760894,wave3,proactive,AY,1,1,1,484,40,,hi
Axcpt,DMCC8760894,wave3,proactive,AX,2,2,1,465,41,,lo
Axcpt,DMCC8760894,wave3,proactive,BY,1,1,1,311,42,lo,lo
Axcpt,DMCC8760894,wave3,proactive,BX,1,1,1,304,43,hi,hi
Axcpt,DMCC8760894,wave3,proactive,AX,2,2,1,291,44,,lo
Axcpt,DMCC8760894,wave3,proactive,Ang,,,1,0,45,,
Axcpt,DMCC8760894,wave3,proactive,BY,1,1,1,307,46,lo,lo
Axcpt,DMCC8760894,wave3,proactive,AX,2,2,1,368,47,,lo
Axcpt,DMCC8760894,wave3,proactive,BY,1,1,1,339,48,lo,lo
Axcpt,DMCC8760894,wave3,proactive,Bng,,,1,0,49,,
Axcpt,DMCC8760894,wave3,proactive,BX,1,1,1,394,50,hi,hi
Axcpt,DMCC8760894,wave3,proactive,BY,1,1,1,390,51,lo,lo
Axcpt,DMCC8760894,wave3,proactive,BY,1,1,1,362,52,lo,lo
Axcpt,DMCC8760894,wave3,proactive,Bng,,1,0,165,53,,
Axcpt,DMCC8760894,wave3,proactive,AX,2,2,1,169,54,,lo
Axcpt,DMCC8760894,wave3,proactive,Ang,,,1,0,55,,
Axcpt,DMCC8760894,wave3,proactive,AX,2,2,1,783,56,,lo
Axcpt,DMCC8760894,wave3,proactive,AX,2,2,1,424,57,,lo
Axcpt,DMCC8760894,wave3,proactive,BY,1,1,1,543,58,lo,lo
Axcpt,DMCC8760894,wave3,proactive,BY,1,1,1,536,59,lo,lo
Axcpt,DMCC8760894,wave3,proactive,BY,1,1,1,144,60,lo,lo
Axcpt,DMCC8760894,wave3,proactive,AX,2,2,1,429,61,,lo
Axcpt,DMCC8760894,wave3,proactive,AX,2,2,1,269,62,,lo
Axcpt,DMCC8760894,wave3,proactive,AY,1,1,1,485,63,,hi
Axcpt,DMCC8760894,wave3,proactive,AY,1,1,1,585,64,,hi
Axcpt,DMCC8760894,wave3,proactive,AX,2,1,0,628,65,,lo
Axcpt,DMCC8760894,wave3,proactive,BY,1,1,1,526,66,lo,lo
Axcpt,DMCC8760894,wave3,proactive,AX,2,1,0,356,67,,lo
Axcpt,DMCC8760894,wave3,proactive,BY,1,1,1,201,68,lo,lo
Axcpt,DMCC8760894,wave3,proactive,BX,1,2,0,623,69,hi,hi
Axcpt,DMCC8760894,wave3,proactive,AX,2,2,1,412,70,,lo
Axcpt,DMCC8760894,wave3,proactive,Ang,,,1,0,71,,
Axcpt,DMCC8760894,wave3,proactive,BY,1,,0,0,72,lo,lo
Axcpt,DMCC8760894,wave3,proactive,BY,1,1,1,248,73,lo,lo
Axcpt,DMCC8760894,wave3,proactive,AX,2,2,1,211,74,,lo
Axcpt,DMCC8760894,wave3,proactive,BY,1,1,1,191,75,lo,lo
Axcpt,DMCC8760894,wave3,proactive,BX,1,1,1,181,76,hi,hi
Axcpt,DMCC8760894,wave3,proactive,Bng,,1,0,240,77,,
Axcpt,DMCC8760894,wave3,proactive,AX,2,2,1,178,78,,lo
Axcpt,DMCC8760894,wave3,proactive,AX,2,2,1,292,79,,lo
Axcpt,DMCC8760894,wave3,proactive,Bng,,1,0,206,80,,
Axcpt,DMCC8760894,wave3,proactive,BY,1,1,1,322,81,lo,lo
Axcpt,DMCC8760894,wave3,proactive,AX,2,2,1,131,82,,lo
Axcpt,DMCC8760894,wave3,proactive,BY,1,1,1,378,83,lo,lo
Axcpt,DMCC8760894,wave3,proactive,BY,1,1,1,330,84,lo,lo
Axcpt,DMCC8760894,wave3,proactive,AY,1,2,0,157,85,,hi
Axcpt,DMCC8760894,wave3,proactive,BY,1,1,1,324,86,lo,lo
Axcpt,DMCC8760894,wave3,proactive,AX,2,2,1,312,87,,lo
Axcpt,DMCC8760894,wave3,proactive,BY,1,1,1,353,88,lo,lo
Axcpt,DMCC8760894,wave3,proactive,BY,1,1,1,320,89,lo,lo
Axcpt,DMCC8760894,wave3,proactive,Ang,,,1,0,90,,
Axcpt,DMCC8760894,wave3,proactive,AX,2,1,0,656,91,,lo
Axcpt,DMCC8760894,wave3,proactive,Ang,,2,0,254,92,,
Axcpt,DMCC8760894,wave3,proactive,AX,2,2,1,424,93,,lo
Axcpt,DMCC8760894,wave3,proactive,BX,1,1,1,355,94,hi,hi
Axcpt,DMCC8760894,wave3,proactive,AX,2,2,1,361,95,,lo
Axcpt,DMCC8760894,wave3,proactive,AY,1,2,0,410,96,,hi
Axcpt,DMCC8760894,wave3,proactive,Ang,,2,0,223,97,,
Axcpt,DMCC8760894,wave3,proactive,AX,2,2,1,302,98,,lo
Axcpt,DMCC8760894,wave3,proactive,BX,1,1,1,255,99,hi,hi
Axcpt,DMCC8760894,wave3,proactive,BY,1,1,1,268,100,lo,lo
Axcpt,DMCC8760894,wave3,proactive,AX,2,2,1,292,101,,lo
Axcpt,DMCC8760894,wave3,proactive,BX,1,1,1,363,102,hi,hi
Axcpt,DMCC8760894,wave3,proactive,AX,2,1,0,808,103,,lo
Axcpt,DMCC8760894,wave3,proactive,AX,2,2,1,412,104,,lo
Axcpt,DMCC8760894,wave3,proactive,BY,1,1,1,255,105,lo,lo
Axcpt,DMCC8760894,wave3,proactive,AY,1,2,0,309,106,,hi
Axcpt,DMCC8760894,wave3,proactive,BY,1,1,1,337,107,lo,lo
Axcpt,DMCC8760894,wave3,proactive,Bng,,,1,0,108,,
Axcpt,DMCC8760894,wave3,proactive,AX,2,2,1,116,109,,lo
Axcpt,DMCC8760894,wave3,proactive,Bng,,,1,0,110,,
Axcpt,DMCC8760894,wave3,proactive,BY,1,1,1,310,111,lo,lo
Axcpt,DMCC8760894,wave3,proactive,AX,2,2,1,327,112,,lo
Axcpt,DMCC8760894,wave3,proactive,BY,1,1,1,326,113,lo,lo
Axcpt,DMCC8760894,wave3,proactive,AX,2,2,1,371,114,,lo
Axcpt,DMCC8760894,wave3,proactive,AY,1,1,1,389,115,,hi
Axcpt,DMCC8760894,wave3,proactive,Ang,,2,0,880,116,,
Axcpt,DMCC8760894,wave3,proactive,BY,1,1,1,587,117,lo,lo
Axcpt,DMCC8760894,wave3,proactive,BY,1,1,1,632,118,lo,lo
Axcpt,DMCC8760894,wave3,proactive,BY,1,,0,0,119,lo,lo
Axcpt,DMCC8760894,wave3,proactive,AX,2,2,1,226,120,,lo
Axcpt,DMCC8760894,wave3,proactive,AX,2,2,1,245,121,,lo
Axcpt,DMCC8760894,wave3,proactive,AY,1,2,0,209,122,,hi
Axcpt,DMCC8760894,wave3,proactive,BY,1,1,1,230,123,lo,lo
Axcpt,DMCC8760894,wave3,proactive,AX,2,2,1,219,124,,lo
Axcpt,DMCC8760894,wave3,proactive,BY,1,1,1,180,125,lo,lo
Axcpt,DMCC8760894,wave3,proactive,AX,2,2,1,268,126,,lo
Axcpt,DMCC8760894,wave3,proactive,BX,1,1,1,305,127,hi,hi
Axcpt,DMCC8760894,wave3,proactive,AX,2,2,1,221,128,,lo
Axcpt,DMCC8760894,wave3,proactive,BX,1,1,1,183,129,hi,hi
Axcpt,DMCC8760894,wave3,proactive,BY,1,1,1,266,130,lo,lo
Axcpt,DMCC8760894,wave3,proactive,Bng,,,1,0,131,,
Axcpt,DMCC8760894,wave3,proactive,AX,2,2,1,210,132,,lo
Axcpt,DMCC8760894,wave3,proactive,AX,2,2,1,198,133,,lo
Axcpt,DMCC8760894,wave3,proactive,AX,2,2,1,234,134,,lo
Axcpt,DMCC8760894,wave3,proactive,BY,1,1,1,297,135,lo,lo
Axcpt,DMCC8760894,wave3,proactive,Bng,,,1,0,136,,
Axcpt,DMCC8760894,wave3,proactive,AY,1,1,1,452,137,,hi
Axcpt,DMCC8760894,wave3,proactive,AX,2,2,1,347,138,,lo
Axcpt,DMCC8760894,wave3,proactive,BY,1,1,1,219,139,lo,lo
Axcpt,DMCC8760894,wave3,proactive,BY,1,,0,0,140,lo,lo
Axcpt,DMCC8760894,wave3,proactive,Ang,,2,0,117,141,,
Axcpt,DMCC8760894,wave3,proactive,Ang,,2,0,191,142,,
Axcpt,DMCC8760894,wave3,proactive,BY,1,1,1,454,143,lo,lo
Axcpt,DMCC8760894,wave3,proactive,BY,1,1,1,116,144,lo,lo
Axcpt,DMCC8760894,wave3,reactive,BY,1,1,1,398,1,lo,lo
Axcpt,DMCC8760894,wave3,reactive,BY,1,1,1,364,2,lo,lo
Axcpt,DMCC8760894,wave3,reactive,Bng,,,1,0,3,,
Axcpt,DMCC8760894,wave3,reactive,AY,1,1,1,438,4,,hi
Axcpt,DMCC8760894,wave3,reactive,Ang,,,1,0,5,,
Axcpt,DMCC8760894,wave3,reactive,Bng,,,1,0,6,,
Axcpt,DMCC8760894,wave3,reactive,AX,2,1,0,436,7,,lo
Axcpt,DMCC8760894,wave3,reactive,BY,1,1,1,511,8,lo,lo
Axcpt,DMCC8760894,wave3,reactive,Ang,,,1,0,9,,
Axcpt,DMCC8760894,wave3,reactive,AX,2,2,1,509,10,,lo
Axcpt,DMCC8760894,wave3,reactive,AY,1,1,1,625,11,,hi
Axcpt,DMCC8760894,wave3,reactive,BX,1,1,1,382,12,hi,hi
Axcpt,DMCC8760894,wave3,reactive,BY,1,1,1,641,13,lo,lo
Axcpt,DMCC8760894,wave3,reactive,BY,1,1,1,405,14,lo,lo
Axcpt,DMCC8760894,wave3,reactive,AX,2,1,0,832,15,,lo
Axcpt,DMCC8760894,wave3,reactive,AX,2,1,0,1045,16,,lo
Axcpt,DMCC8760894,wave3,reactive,BX,1,2,0,462,17,hi,hi
Axcpt,DMCC8760894,wave3,reactive,BY,1,1,1,259,18,lo,lo
Axcpt,DMCC8760894,wave3,reactive,AX,2,2,1,309,19,,lo
Axcpt,DMCC8760894,wave3,reactive,AX,2,2,1,456,20,,lo
Axcpt,DMCC8760894,wave3,reactive,BY,1,1,1,359,21,lo,lo
Axcpt,DMCC8760894,wave3,reactive,AX,2,2,1,495,22,,lo
Axcpt,DMCC8760894,wave3,reactive,AX,2,1,0,373,23,,lo
Axcpt,DMCC8760894,wave3,reactive,BY,1,1,1,463,24,lo,lo
Axcpt,DMCC8760894,wave3,reactive,Ang,,,1,0,25,,
Axcpt,DMCC8760894,wave3,reactive,AX,2,2,1,471,26,,lo
Axcpt,DMCC8760894,wave3,reactive,Bng,,,1,0,27,,
Axcpt,DMCC8760894,wave3,reactive,BY,1,1,1,463,28,lo,lo
Axcpt,DMCC8760894,wave3,reactive,BY,1,1,1,380,29,lo,lo
Axcpt,DMCC8760894,wave3,reactive,AX,2,2,1,695,30,,lo
Axcpt,DMCC8760894,wave3,reactive,BY,1,1,1,424,31,lo,lo
Axcpt,DMCC8760894,wave3,reactive,AX,2,2,1,408,32,,lo
Axcpt,DMCC8760894,wave3,reactive,BY,1,1,1,1049,33,lo,lo
Axcpt,DMCC8760894,wave3,reactive,AX,2,2,1,331,34,,lo
Axcpt,DMCC8760894,wave3,reactive,AX,2,,0,0,35,,lo
Axcpt,DMCC8760894,wave3,reactive,BY,1,1,1,534,36,lo,lo
Axcpt,DMCC8760894,wave3,reactive,BY,1,1,1,685,37,lo,lo
Axcpt,DMCC8760894,wave3,reactive,BX,1,1,1,408,38,hi,hi
Axcpt,DMCC8760894,wave3,reactive,AX,2,2,1,388,39,,lo
Axcpt,DMCC8760894,wave3,reactive,BY,1,1,1,488,40,lo,lo
Axcpt,DMCC8760894,wave3,reactive,BY,1,1,1,432,41,lo,lo
Axcpt,DMCC8760894,wave3,reactive,AY,1,1,1,533,42,,hi
Axcpt,DMCC8760894,wave3,reactive,AX,2,1,0,308,43,,lo
Axcpt,DMCC8760894,wave3,reactive,BX,1,,0,0,44,hi,hi
Axcpt,DMCC8760894,wave3,reactive,AY,1,,0,0,45,,hi
Axcpt,DMCC8760894,wave3,reactive,Ang,,,1,0,46,,
Axcpt,DMCC8760894,wave3,reactive,AX,2,1,0,435,47,,lo
Axcpt,DMCC8760894,wave3,reactive,Bng,,,1,0,48,,
Axcpt,DMCC8760894,wave3,reactive,AY,1,,0,0,49,,hi
Axcpt,DMCC8760894,wave3,reactive,AX,2,2,1,501,50,,lo
Axcpt,DMCC8760894,wave3,reactive,BY,1,,0,0,51,lo,lo
Axcpt,DMCC8760894,wave3,reactive,AX,2,2,1,594,52,,lo
Axcpt,DMCC8760894,wave3,reactive,BY,1,1,1,542,53,lo,lo
Axcpt,DMCC8760894,wave3,reactive,BY,1,1,1,531,54,lo,lo
Axcpt,DMCC8760894,wave3,reactive,AX,2,,0,0,55,,lo
Axcpt,DMCC8760894,wave3,reactive,AX,2,1,0,464,56,,lo
Axcpt,DMCC8760894,wave3,reactive,AX,2,2,1,570,57,,lo
Axcpt,DMCC8760894,wave3,reactive,Bng,,,1,0,58,,
Axcpt,DMCC8760894,wave3,reactive,Ang,,,1,0,59,,
Axcpt,DMCC8760894,wave3,reactive,AX,2,2,1,389,60,,lo
Axcpt,DMCC8760894,wave3,reactive,Bng,,,1,0,61,,
Axcpt,DMCC8760894,wave3,reactive,AX,2,2,1,611,62,,lo
Axcpt,DMCC8760894,wave3,reactive,AY,1,1,1,524,63,,hi
Axcpt,DMCC8760894,wave3,reactive,AX,2,1,0,329,64,,lo
Axcpt,DMCC8760894,wave3,reactive,BY,1,1,1,506,65,lo,lo
Axcpt,DMCC8760894,wave3,reactive,BY,1,1,1,515,66,lo,lo
Axcpt,DMCC8760894,wave3,reactive,BY,1,1,1,660,67,lo,lo
Axcpt,DMCC8760894,wave3,reactive,BY,1,,0,0,68,lo,lo
Axcpt,DMCC8760894,wave3,reactive,Ang,,2,0,968,69,,
Axcpt,DMCC8760894,wave3,reactive,BX,1,1,1,322,70,hi,hi
Axcpt,DMCC8760894,wave3,reactive,BY,1,1,1,437,71,lo,lo
Axcpt,DMCC8760894,wave3,reactive,BX,1,1,1,420,72,hi,hi
Axcpt,DMCC8760894,wave3,reactive,AY,1,1,1,467,73,,hi
Axcpt,DMCC8760894,wave3,reactive,BY,1,1,1,380,74,lo,lo
Axcpt,DMCC8760894,wave3,reactive,BY,1,1,1,307,75,lo,lo
Axcpt,DMCC8760894,wave3,reactive,BY,1,1,1,406,76,lo,lo
Axcpt,DMCC8760894,wave3,reactive,AX,2,1,0,540,77,,lo
Axcpt,DMCC8760894,wave3,reactive,AX,2,2,1,428,78,,lo
Axcpt,DMCC8760894,wave3,reactive,Bng,,,1,0,79,,
Axcpt,DMCC8760894,wave3,reactive,BX,1,1,1,523,80,hi,hi
Axcpt,DMCC8760894,wave3,reactive,AX,2,2,1,347,81,,lo
Axcpt,DMCC8760894,wave3,reactive,Ang,,,1,0,82,,
Axcpt,DMCC8760894,wave3,reactive,BY,1,1,1,553,83,lo,lo
Axcpt,DMCC8760894,wave3,reactive,AX,2,2,1,831,84,,lo
Axcpt,DMCC8760894,wave3,reactive,BX,1,1,1,515,85,hi,hi
Axcpt,DMCC8760894,wave3,reactive,AX,2,2,1,382,86,,lo
Axcpt,DMCC8760894,wave3,reactive,BY,1,1,1,497,87,lo,lo
Axcpt,DMCC8760894,wave3,reactive,AY,1,1,1,748,88,,hi
Axcpt,DMCC8760894,wave3,reactive,AX,2,1,0,438,89,,lo
Axcpt,DMCC8760894,wave3,reactive,Ang,,,1,0,90,,
Axcpt,DMCC8760894,wave3,reactive,AX,2,2,1,587,91,,lo
Axcpt,DMCC8760894,wave3,reactive,AX,2,2,1,516,92,,lo
Axcpt,DMCC8760894,wave3,reactive,BY,1,1,1,379,93,lo,lo
Axcpt,DMCC8760894,wave3,reactive,BY,1,1,1,364,94,lo,lo
Axcpt,DMCC8760894,wave3,reactive,Bng,,,1,0,95,,
Axcpt,DMCC8760894,wave3,reactive,BY,1,,0,0,96,lo,lo
Axcpt,DMCC8760894,wave3,reactive,BY,1,1,1,656,97,lo,lo
Axcpt,DMCC8760894,wave3,reactive,BY,1,,0,0,98,lo,lo
Axcpt,DMCC8760894,wave3,reactive,Ang,,,1,0,99,,
Axcpt,DMCC8760894,wave3,reactive,Ang,,,1,0,100,,
Axcpt,DMCC8760894,wave3,reactive,AX,2,2,1,1030,101,,lo
Axcpt,DMCC8760894,wave3,reactive,Bng,,,1,0,102,,
Axcpt,DMCC8760894,wave3,reactive,BY,1,1,1,435,103,lo,lo
Axcpt,DMCC8760894,wave3,reactive,AX,2,,0,0,104,,lo
Axcpt,DMCC8760894,wave3,reactive,BY,1,,0,0,105,lo,lo
Axcpt,DMCC8760894,wave3,reactive,Bng,,,1,0,106,,
Axcpt,DMCC8760894,wave3,reactive,AX,2,1,0,444,107,,lo
Axcpt,DMCC8760894,wave3,reactive,AX,2,1,0,342,108,,lo
Axcpt,DMCC8760894,wave3,reactive,AX,2,2,1,446,109,,lo
Axcpt,DMCC8760894,wave3,reactive,BX,1,1,1,548,110,hi,hi
Axcpt,DMCC8760894,wave3,reactive,BY,1,1,1,408,111,lo,lo
Axcpt,DMCC8760894,wave3,reactive,BX,1,1,1,368,112,hi,hi
Axcpt,DMCC8760894,wave3,reactive,AY,1,1,1,1084,113,,hi
Axcpt,DMCC8760894,wave3,reactive,AX,2,2,1,414,114,,lo
Axcpt,DMCC8760894,wave3,reactive,AX,2,1,0,386,115,,lo
Axcpt,DMCC8760894,wave3,reactive,BY,1,1,1,453,116,lo,lo
Axcpt,DMCC8760894,wave3,reactive,BY,1,1,1,522,117,lo,lo
Axcpt,DMCC8760894,wave3,reactive,AX,2,,0,0,118,,lo
Axcpt,DMCC8760894,wave3,reactive,BY,1,1,1,645,119,lo,lo
Axcpt,DMCC8760894,wave3,reactive,AY,1,1,1,1102,120,,hi
Axcpt,DMCC8760894,wave3,reactive,Bng,,,1,0,121,,
Axcpt,DMCC8760894,wave3,reactive,BY,1,1,1,514,122,lo,lo
Axcpt,DMCC8760894,wave3,reactive,BY,1,1,1,452,123,lo,lo
Axcpt,DMCC8760894,wave3,reactive,AY,1,1,1,540,124,,hi
Axcpt,DMCC8760894,wave3,reactive,Bng,,,1,0,125,,
Axcpt,DMCC8760894,wave3,reactive,AX,2,1,0,480,126,,lo
Axcpt,DMCC8760894,wave3,reactive,BY,1,1,1,512,127,lo,lo
Axcpt,DMCC8760894,wave3,reactive,AX,2,1,0,349,128,,lo
Axcpt,DMCC8760894,wave3,reactive,BX,1,1,1,634,129,hi,hi
Axcpt,DMCC8760894,wave3,reactive,AX,2,2,1,718,130,,lo
Axcpt,DMCC8760894,wave3,reactive,AY,1,1,1,390,131,,hi
Axcpt,DMCC8760894,wave3,reactive,BY,1,1,1,439,132,lo,lo
Axcpt,DMCC8760894,wave3,reactive,BY,1,1,1,292,133,lo,lo
Axcpt,DMCC8760894,wave3,reactive,BY,1,1,1,249,134,lo,lo
Axcpt,DMCC8760894,wave3,reactive,AX,2,1,0,321,135,,lo
Axcpt,DMCC8760894,wave3,reactive,Ang,,,1,0,136,,
Axcpt,DMCC8760894,wave3,reactive,BY,1,1,1,419,137,lo,lo
Axcpt,DMCC8760894,wave3,reactive,AX,2,2,1,1002,138,,lo
Axcpt,DMCC8760894,wave3,reactive,AX,2,2,1,523,139,,lo
Axcpt,DMCC8760894,wave3,reactive,Ang,,,1,0,140,,
Axcpt,DMCC8760894,wave3,reactive,AX,2,2,1,412,141,,lo
Axcpt,DMCC8760894,wave3,reactive,BX,1,1,1,411,142,hi,hi
Axcpt,DMCC8760894,wave3,reactive,BY,1,1,1,576,143,lo,lo
Axcpt,DMCC8760894,wave3,reactive,AX,2,2,1,345,144,,lo
Cuedts,DMCC8760894,wave1,baseline,InConInc,1,1,1,597,1,hi,hi
Cuedts,DMCC8760894,wave1,baseline,ConNoInc,1,1,1,853,2,,lo
Cuedts,DMCC8760894,wave1,baseline,InConInc,2,2,1,1434,3,hi,hi
Cuedts,DMCC8760894,wave1,baseline,InConInc,1,1,1,860,4,hi,hi
Cuedts,DMCC8760894,wave1,baseline,InConNoInc,1,1,1,761,5,,hi
Cuedts,DMCC8760894,wave1,baseline,InConNoInc,1,1,1,760,6,,hi
Cuedts,DMCC8760894,wave1,baseline,ConNoInc,2,2,1,1257,7,,lo
Cuedts,DMCC8760894,wave1,baseline,ConInc,1,1,1,734,8,lo,lo
Cuedts,DMCC8760894,wave1,baseline,ConInc,1,1,1,992,9,lo,lo
Cuedts,DMCC8760894,wave1,baseline,ConNoInc,1,1,1,1109,10,,lo
Cuedts,DMCC8760894,wave1,baseline,InConInc,1,1,1,896,11,hi,hi
Cuedts,DMCC8760894,wave1,baseline,ConNoInc,2,2,1,1196,12,,lo
Cuedts,DMCC8760894,wave1,baseline,ConNoInc,1,1,1,989,13,,lo
Cuedts,DMCC8760894,wave1,baseline,ConNoInc,2,2,1,1066,14,,lo
Cuedts,DMCC8760894,wave1,baseline,ConNoInc,2,1,0,1292,15,,lo
Cuedts,DMCC8760894,wave1,baseline,ConNoInc,1,1,1,1209,16,,lo
Cuedts,DMCC8760894,wave1,baseline,ConNoInc,2,2,1,1226,17,,lo
Cuedts,DMCC8760894,wave1,baseline,ConNoInc,2,2,1,1007,18,,lo
Cuedts,DMCC8760894,wave1,baseline,ConNoInc,1,1,1,786,19,,lo
Cuedts,DMCC8760894,wave1,baseline,ConNoInc,1,1,1,996,20,,lo
Cuedts,DMCC8760894,wave1,baseline,ConNoInc,2,2,1,1433,21,,lo
Cuedts,DMCC8760894,wave1,baseline,ConNoInc,2,2,1,1041,22,,lo
Cuedts,DMCC8760894,wave1,baseline,ConNoInc,1,1,1,997,23,,lo
Cuedts,DMCC8760894,wave1,baseline,ConNoInc,1,1,1,1022,24,,lo
Cuedts,DMCC8760894,wave1,baseline,InConNoInc,2,2,1,1304,25,,hi
Cuedts,DMCC8760894,wave1,baseline,InConInc,2,1,0,1051,26,hi,hi
Cuedts,DMCC8760894,wave1,baseline,ConNoInc,1,1,1,982,27,,lo
Cuedts,DMCC8760894,wave1,baseline,InConInc,2,2,1,1301,28,hi,hi
Cuedts,DMCC8760894,wave1,baseline,ConInc,2,2,1,945,29,lo,lo
Cuedts,DMCC8760894,wave1,baseline,ConNoInc,1,,0,0,30,,lo
Cuedts,DMCC8760894,wave1,baseline,InConInc,1,1,1,1330,31,hi,hi
Cuedts,DMCC8760894,wave1,baseline,ConNoInc,2,2,1,969,32,,lo
Cuedts,DMCC8760894,wave1,baseline,InConInc,2,2,1,1175,33,hi,hi
Cuedts,DMCC8760894,wave1,baseline,InConInc,2,2,1,1549,34,hi,hi
Cuedts,DMCC8760894,wave1,baseline,ConNoInc,2,2,1,1368,35,,lo
Cuedts,DMCC8760894,wave1,baseline,InConNoInc,2,2,1,1041,36,,hi
Cuedts,DMCC8760894,wave1,baseline,ConNoInc,1,1,1,774,37,,lo
Cuedts,DMCC8760894,wave1,baseline,ConNoInc,1,1,1,1227,38,,lo
Cuedts,DMCC8760894,wave1,baseline,ConNoInc,2,1,0,1654,39,,lo
Cuedts,DMCC8760894,wave1,baseline,InConNoInc,2,2,1,1431,40,,hi
Cuedts,DMCC8760894,wave1,baseline,InConInc,1,1,1,1350,41,hi,hi
Cuedts,DMCC8760894,wave1,baseline,ConNoInc,2,2,1,910,42,,lo
Cuedts,DMCC8760894,wave1,baseline,ConNoInc,1,1,1,803,43,,lo
Cuedts,DMCC8760894,wave1,baseline,ConNoInc,2,2,1,1874,44,,lo
Cuedts,DMCC8760894,wave1,baseline,InConInc,1,1,1,983,45,hi,hi
Cuedts,DMCC8760894,wave1,baseline,InConInc,1,1,1,1075,46,hi,hi
Cuedts,DMCC8760894,wave1,baseline,InConInc,2,2,1,1553,47,hi,hi
Cuedts,DMCC8760894,wave1,baseline,ConNoInc,2,2,1,1219,48,,lo
Cuedts,DMCC8760894,wave1,baseline,InConInc,2,2,1,1217,49,hi,hi
Cuedts,DMCC8760894,wave1,baseline,ConNoInc,1,1,1,1290,50,,lo
Cuedts,DMCC8760894,wave1,baseline,ConNoInc,1,1,1,1680,51,,lo
Cuedts,DMCC8760894,wave1,baseline,ConNoInc,2,2,1,1244,52,,lo
Cuedts,DMCC8760894,wave1,baseline,ConInc,2,2,1,1989,53,lo,lo
Cuedts,DMCC8760894,wave1,baseline,ConNoInc,1,1,1,979,54,,lo
Cuedts,DMCC8760894,wave1,baseline,ConNoInc,2,2,1,1150,55,,lo
Cuedts,DMCC8760894,wave1,baseline,InConInc,2,2,1,942,56,hi,hi
Cuedts,DMCC8760894,wave1,baseline,ConNoInc,2,2,1,1011,57,,lo
Cuedts,DMCC8760894,wave1,baseline,InConInc,1,1,1,1070,58,hi,hi
Cuedts,DMCC8760894,wave1,baseline,ConInc,1,1,1,1002,59,lo,lo
Cuedts,DMCC8760894,wave1,baseline,ConNoInc,2,2,1,1539,60,,lo
Cuedts,DMCC8760894,wave1,baseline,ConNoInc,1,1,1,1164,61,,lo
Cuedts,DMCC8760894,wave1,baseline,InConInc,2,1,0,2922,62,hi,hi
Cuedts,DMCC8760894,wave1,baseline,ConNoInc,2,2,1,1893,63,,lo
Cuedts,DMCC8760894,wave1,baseline,ConNoInc,1,1,1,1329,64,,lo
Cuedts,DMCC8760894,wave1,baseline,ConNoInc,1,1,1,1060,65,,lo
Cuedts,DMCC8760894,wave1,baseline,ConNoInc,1,1,1,1208,66,,lo
Cuedts,DMCC8760894,wave1,baseline,InConNoInc,2,2,1,1931,67,,hi
Cuedts,DMCC8760894,wave1,baseline,InConInc,2,2,1,2110,68,hi,hi
Cuedts,DMCC8760894,wave1,baseline,InConInc,1,1,1,1381,69,hi,hi
Cuedts,DMCC8760894,wave1,baseline,ConNoInc,2,2,1,979,70,,lo
Cuedts,DMCC8760894,wave1,baseline,ConNoInc,1,1,1,1053,71,,lo
Cuedts,DMCC8760894,wave1,baseline,ConNoInc,2,2,1,1608,72,,lo
Cuedts,DMCC8760894,wave1,baseline,InConInc,2,1,0,1365,73,hi,hi
Cuedts,DMCC8760894,wave1,baseline,InConInc,1,1,1,791,74,hi,hi
Cuedts,DMCC8760894,wave1,baseline,ConNoInc,1,1,1,1056,75,,lo
Cuedts,DMCC8760894,wave1,baseline,ConNoInc,2,2,1,1623,76,,lo
Cuedts,DMCC8760894,wave1,baseline,ConNoInc,2,2,1,1723,77,,lo
Cuedts,DMCC8760894,wave1,baseline,ConInc,1,1,1,1475,78,lo,lo
Cuedts,DMCC8760894,wave1,baseline,InConInc,1,1,1,934,79,hi,hi
Cuedts,DMCC8760894,wave1,baseline,InConNoInc,1,1,1,1347,80,,hi
Cuedts,DMCC8760894,wave1,baseline,ConInc,2,2,1,1419,81,lo,lo
Cuedts,DMCC8760894,wave1,baseline,ConNoInc,2,2,1,1812,82,,lo
Cuedts,DMCC8760894,wave1,baseline,ConNoInc,1,1,1,2958,83,,lo
Cuedts,DMCC8760894,wave1,baseline,InConInc,1,1,1,1711,84,hi,hi
Cuedts,DMCC8760894,wave1,baseline,ConNoInc,2,2,1,1652,85,,lo
Cuedts,DMCC8760894,wave1,baseline,ConNoInc,1,1,1,3181,86,,lo
Cuedts,DMCC8760894,wave1,baseline,InConNoInc,2,2,1,1026,87,,hi
Cuedts,DMCC8760894,wave1,baseline,ConNoInc,1,1,1,796,88,,lo
Cuedts,DMCC8760894,wave1,baseline,ConNoInc,1,1,1,701,89,,lo
Cuedts,DMCC8760894,wave1,baseline,ConNoInc,1,1,1,1457,90,,lo
Cuedts,DMCC8760894,wave1,baseline,ConInc,2,2,1,1360,91,lo,lo
Cuedts,DMCC8760894,wave1,baseline,ConNoInc,1,1,1,1236,92,,lo
Cuedts,DMCC8760894,wave1,baseline,ConNoInc,2,2,1,1230,93,,lo
Cuedts,DMCC8760894,wave1,baseline,ConNoInc,2,2,1,1200,94,,lo
Cuedts,DMCC8760894,wave1,baseline,InConNoInc,1,1,1,1161,95,,hi
Cuedts,DMCC8760894,wave1,baseline,ConNoInc,1,1,1,2530,96,,lo
Cuedts,DMCC8760894,wave1,baseline,ConNoInc,1,1,1,1466,97,,lo
Cuedts,DMCC8760894,wave1,baseline,ConNoInc,1,1,1,1009,98,,lo
Cuedts,DMCC8760894,wave1,baseline,ConNoInc,2,2,1,1520,99,,lo
Cuedts,DMCC8760894,wave1,baseline,InConInc,2,2,1,1343,100,hi,hi
Cuedts,DMCC8760894,wave1,baseline,InConNoInc,2,2,1,1086,101,,hi
Cuedts,DMCC8760894,wave1,baseline,ConNoInc,2,2,1,2250,102,,lo
Cuedts,DMCC8760894,wave1,baseline,ConNoInc,2,,0,0,103,,lo
Cuedts,DMCC8760894,wave1,baseline,InConInc,2,2,1,1090,104,hi,hi
Cuedts,DMCC8760894,wave1,baseline,InConInc,2,2,1,1185,105,hi,hi
Cuedts,DMCC8760894,wave1,baseline,ConNoInc,2,2,1,2331,106,,lo
Cuedts,DMCC8760894,wave1,baseline,InConInc,1,,0,0,107,hi,hi
Cuedts,DMCC8760894,wave1,baseline,InConInc,1,1,1,822,108,hi,hi
Cuedts,DMCC8760894,wave1,proactive,ConNoInc,1,1,1,789,1,,lo
Cuedts,DMCC8760894,wave1,proactive,ConNoInc,2,2,1,1128,2,,lo
Cuedts,DMCC8760894,wave1,proactive,ConNoInc,2,2,1,914,3,,lo
Cuedts,DMCC8760894,wave1,proactive,InConInc,1,1,1,893,4,hi,hi
Cuedts,DMCC8760894,wave1,proactive,ConInc,1,1,1,671,5,lo,lo
Cuedts,DMCC8760894,wave1,proactive,ConNoInc,2,2,1,973,6,,lo
Cuedts,DMCC8760894,wave1,proactive,InConInc,1,1,1,842,7,hi,hi
Cuedts,DMCC8760894,wave1,proactive,ConNoInc,1,1,1,756,8,,lo
Cuedts,DMCC8760894,wave1,proactive,ConNoInc,2,2,1,983,9,,lo
Cuedts,DMCC8760894,wave1,proactive,ConNoInc,2,2,1,896,10,,lo
Cuedts,DMCC8760894,wave1,proactive,InConNoInc,1,1,1,816,11,,hi
Cuedts,DMCC8760894,wave1,proactive,InConNoInc,1,1,1,1430,12,,hi
Cuedts,DMCC8760894,wave1,proactive,ConNoInc,1,1,1,771,13,,lo
Cuedts,DMCC8760894,wave1,proactive,ConNoInc,2,2,1,1007,14,,lo
Cuedts,DMCC8760894,wave1,proactive,InConInc,1,1,1,764,15,hi,hi
Cuedts,DMCC8760894,wave1,proactive,ConInc,1,1,1,835,16,lo,lo
Cuedts,DMCC8760894,wave1,proactive,InConInc,2,2,1,1445,17,hi,hi
Cuedts,DMCC8760894,wave1,proactive,ConNoInc,1,1,1,900,18,,lo
Cuedts,DMCC8760894,wave1,proactive,ConNoInc,1,1,1,902,19,,lo
Cuedts,DMCC8760894,wave1,proactive,ConNoInc,2,1,0,839,20,,lo
Cuedts,DMCC8760894,wave1,proactive,ConNoInc,2,2,1,707,21,,lo
Cuedts,DMCC8760894,wave1,proactive,ConNoInc,1,1,1,1154,22,,lo
Cuedts,DMCC8760894,wave1,proactive,InConInc,1,1,1,861,23,hi,hi
Cuedts,DMCC8760894,wave1,proactive,ConNoInc,2,2,1,977,24,,lo
Cuedts,DMCC8760894,wave1,proactive,ConNoInc,1,1,1,691,25,,lo
Cuedts,DMCC8760894,wave1,proactive,InConInc,2,2,1,870,26,hi,hi
Cuedts,DMCC8760894,wave1,proactive,InConNoInc,2,2,1,1423,27,,hi
Cuedts,DMCC8760894,wave1,proactive,ConNoInc,2,2,1,856,28,,lo
Cuedts,DMCC8760894,wave1,proactive,InConInc,2,2,1,751,29,hi,hi
Cuedts,DMCC8760894,wave1,proactive,InConNoInc,2,1,0,689,30,,hi
Cuedts,DMCC8760894,wave1,proactive,ConNoInc,1,1,1,956,31,,lo
Cuedts,DMCC8760894,wave1,proactive,ConNoInc,1,1,1,370,32,,lo
Cuedts,DMCC8760894,wave1,proactive,InConInc,2,2,1,751,33,hi,hi
Cuedts,DMCC8760894,wave1,proactive,ConInc,2,2,1,532,34,lo,lo
Cuedts,DMCC8760894,wave1,proactive,InConInc,2,2,1,807,35,hi,hi
Cuedts,DMCC8760894,wave1,proactive,ConNoInc,1,1,1,1451,36,,lo
Cuedts,DMCC8760894,wave1,proactive,ConInc,2,2,1,1563,37,lo,lo
Cuedts,DMCC8760894,wave1,proactive,ConNoInc,2,2,1,858,38,,lo
Cuedts,DMCC8760894,wave1,proactive,ConNoInc,1,1,1,616,39,,lo
Cuedts,DMCC8760894,wave1,proactive,ConNoInc,2,2,1,752,40,,lo
Cuedts,DMCC8760894,wave1,proactive,ConNoInc,1,1,1,625,41,,lo
Cuedts,DMCC8760894,wave1,proactive,ConNoInc,2,,0,0,42,,lo
Cuedts,DMCC8760894,wave1,proactive,InConNoInc,2,2,1,1625,43,,hi
Cuedts,DMCC8760894,wave1,proactive,InConInc,1,1,1,620,44,hi,hi
Cuedts,DMCC8760894,wave1,proactive,InConInc,1,1,1,641,45,hi,hi
Cuedts,DMCC8760894,wave1,proactive,InConInc,2,2,1,816,46,hi,hi
Cuedts,DMCC8760894,wave1,proactive,InConInc,2,2,1,720,47,hi,hi
Cuedts,DMCC8760894,wave1,proactive,ConNoInc,1,1,1,1038,48,,lo
Cuedts,DMCC8760894,wave1,proactive,InConInc,1,1,1,606,49,hi,hi
Cuedts,DMCC8760894,wave1,proactive,ConNoInc,1,1,1,1010,50,,lo
Cuedts,DMCC8760894,wave1,proactive,ConNoInc,1,1,1,626,51,,lo
Cuedts,DMCC8760894,wave1,proactive,ConNoInc,2,2,1,1198,52,,lo
Cuedts,DMCC8760894,wave1,proactive,ConNoInc,1,1,1,1311,53,,lo
Cuedts,DMCC8760894,wave1,proactive,ConNoInc,2,2,1,1093,54,,lo
Cuedts,DMCC8760894,wave1,proactive,ConNoInc,1,1,1,646,55,,lo
Cuedts,DMCC8760894,wave1,proactive,InConInc,2,2,1,783,56,hi,hi
Cuedts,DMCC8760894,wave1,proactive,ConNoInc,1,1,1,745,57,,lo
Cuedts,DMCC8760894,wave1,proactive,InConInc,1,1,1,786,58,hi,hi
Cuedts,DMCC8760894,wave1,proactive,ConNoInc,2,2,1,874,59,,lo
Cuedts,DMCC8760894,wave1,proactive,ConNoInc,2,2,1,1285,60,,lo
Cuedts,DMCC8760894,wave1,proactive,ConNoInc,2,2,1,843,61,,lo
Cuedts,DMCC8760894,wave1,proactive,ConNoInc,1,1,1,691,62,,lo
Cuedts,DMCC8760894,wave1,proactive,ConNoInc,1,1,1,1332,63,,lo
Cuedts,DMCC8760894,wave1,proactive,InConInc,2,2,1,877,64,hi,hi
Cuedts,DMCC8760894,wave1,proactive,InConInc,1,1,1,759,65,hi,hi
Cuedts,DMCC8760894,wave1,proactive,ConNoInc,2,2,1,2650,66,,lo
Cuedts,DMCC8760894,wave1,proactive,ConNoInc,2,2,1,1044,67,,lo
Cuedts,DMCC8760894,wave1,proactive,ConNoInc,2,2,1,1466,68,,lo
Cuedts,DMCC8760894,wave1,proactive,ConNoInc,1,1,1,1300,69,,lo
Cuedts,DMCC8760894,wave1,proactive,InConNoInc,2,2,1,1418,70,,hi
Cuedts,DMCC8760894,wave1,proactive,InConInc,2,2,1,923,71,hi,hi
Cuedts,DMCC8760894,wave1,proactive,ConInc,1,1,1,614,72,lo,lo
Cuedts,DMCC8760894,wave1,proactive,ConNoInc,2,,0,0,73,,lo
Cuedts,DMCC8760894,wave1,proactive,InConInc,1,1,1,507,74,hi,hi
Cuedts,DMCC8760894,wave1,proactive,ConNoInc,1,1,1,501,75,,lo
Cuedts,DMCC8760894,wave1,proactive,ConNoInc,1,1,1,866,76,,lo
Cuedts,DMCC8760894,wave1,proactive,ConNoInc,1,1,1,1678,77,,lo
Cuedts,DMCC8760894,wave1,proactive,InConInc,1,1,1,787,78,hi,hi
Cuedts,DMCC8760894,wave1,proactive,ConNoInc,1,1,1,810,79,,lo
Cuedts,DMCC8760894,wave1,proactive,ConNoInc,2,2,1,1171,80,,lo
Cuedts,DMCC8760894,wave1,proactive,ConNoInc,1,2,0,1719,81,,lo
Cuedts,DMCC8760894,wave1,proactive,ConInc,1,1,1,780,82,lo,lo
Cuedts,DMCC8760894,wave1,proactive,InConNoInc,1,1,1,798,83,,hi
Cuedts,DMCC8760894,wave1,proactive,ConNoInc,2,2,1,915,84,,lo
Cuedts,DMCC8760894,wave1,proactive,ConNoInc,2,2,1,1658,85,,lo
Cuedts,DMCC8760894,wave1,proactive,InConInc,1,1,1,769,86,hi,hi
Cuedts,DMCC8760894,wave1,proactive,ConInc,2,2,1,943,87,lo,lo
Cuedts,DMCC8760894,wave1,proactive,ConNoInc,1,1,1,1025,88,,lo
Cuedts,DMCC8760894,wave1,proactive,InConNoInc,2,1,0,766,89,,hi
Cuedts,DMCC8760894,wave1,proactive,InConInc,2,2,1,623,90,hi,hi
Cuedts,DMCC8760894,wave1,proactive,ConNoInc,1,1,1,957,91,,lo
Cuedts,DMCC8760894,wave1,proactive,InConInc,1,1,1,566,92,hi,hi
Cuedts,DMCC8760894,wave1,proactive,ConNoInc,2,2,1,1487,93,,lo
Cuedts,DMCC8760894,wave1,proactive,ConNoInc,2,2,1,894,94,,lo
Cuedts,DMCC8760894,wave1,proactive,InConInc,2,2,1,863,95,hi,hi
Cuedts,DMCC8760894,wave1,proactive,InConNoInc,1,1,1,1561,96,,hi
Cuedts,DMCC8760894,wave1,proactive,ConNoInc,1,1,1,975,97,,lo
Cuedts,DMCC8760894,wave1,proactive,InConInc,2,2,1,783,98,hi,hi
Cuedts,DMCC8760894,wave1,proactive,InConInc,2,2,1,664,99,hi,hi
Cuedts,DMCC8760894,wave1,proactive,ConNoInc,1,1,1,1123,100,,lo
Cuedts,DMCC8760894,wave1,proactive,ConNoInc,1,1,1,1063,101,,lo
Cuedts,DMCC8760894,wave1,proactive,ConNoInc,2,1,0,1491,102,,lo
Cuedts,DMCC8760894,wave1,proactive,ConNoInc,2,2,1,699,103,,lo
Cuedts,DMCC8760894,wave1,proactive,InConNoInc,2,2,1,1490,104,,hi
Cuedts,DMCC8760894,wave1,proactive,ConNoInc,2,2,1,789,105,,lo
Cuedts,DMCC8760894,wave1,proactive,ConNoInc,2,2,1,1265,106,,lo
Cuedts,DMCC8760894,wave1,proactive,InConInc,1,1,1,1610,107,hi,hi
Cuedts,DMCC8760894,wave1,proactive,ConInc,2,2,1,1071,108,lo,lo
Cuedts,DMCC8760894,wave1,reactive,InConInc,1,1,1,1698,1,hi,hi
Cuedts,DMCC8760894,wave1,reactive,InConNoInc,1,1,1,1589,2,,hi
Cuedts,DMCC8760894,wave1,reactive,InConNoInc,1,1,1,814,3,,hi
Cuedts,DMCC8760894,wave1,reactive,ConNoInc,2,2,1,941,4,,lo
Cuedts,DMCC8760894,wave1,reactive,ConNoInc,1,1,1,1534,5,,lo
Cuedts,DMCC8760894,wave1,reactive,ConNoInc,1,1,1,808,6,,lo
Cuedts,DMCC8760894,wave1,reactive,ConNoInc,2,2,1,1222,7,,lo
Cuedts,DMCC8760894,wave1,reactive,ConInc,1,1,1,1200,8,lo,lo
Cuedts,DMCC8760894,wave1,reactive,ConNoInc,2,2,1,1110,9,,lo
Cuedts,DMCC8760894,wave1,reactive,ConNoInc,1,1,1,1300,10,,lo
Cuedts,DMCC8760894,wave1,reactive,ConNoInc,2,2,1,1633,11,,lo
Cuedts,DMCC8760894,wave1,reactive,ConInc,1,1,1,988,12,lo,lo
Cuedts,DMCC8760894,wave1,reactive,ConNoInc,2,2,1,989,13,,lo
Cuedts,DMCC8760894,wave1,reactive,ConNoInc,1,1,1,1131,14,,lo
Cuedts,DMCC8760894,wave1,reactive,InConInc,1,1,1,1113,15,hi,hi
Cuedts,DMCC8760894,wave1,reactive,ConNoInc,2,2,1,1058,16,,lo
Cuedts,DMCC8760894,wave1,reactive,InConInc,1,1,1,1549,17,hi,hi
Cuedts,DMCC8760894,wave1,reactive,InConInc,2,2,1,1350,18,hi,hi
Cuedts,DMCC8760894,wave1,reactive,ConNoInc,2,2,1,901,19,,lo
Cuedts,DMCC8760894,wave1,reactive,ConInc,2,2,1,1811,20,lo,lo
Cuedts,DMCC8760894,wave1,reactive,ConNoInc,2,2,1,1600,21,,lo
Cuedts,DMCC8760894,wave1,reactive,InConNoInc,2,2,1,1709,22,,hi
Cuedts,DMCC8760894,wave1,reactive,InConInc,2,2,1,1647,23,hi,hi
Cuedts,DMCC8760894,wave1,reactive,ConNoInc,1,1,1,1872,24,,lo
Cuedts,DMCC8760894,wave1,reactive,InConInc,2,2,1,2414,25,hi,hi
Cuedts,DMCC8760894,wave1,reactive,ConNoInc,1,1,1,2332,26,,lo
Cuedts,DMCC8760894,wave1,reactive,InConInc,2,2,1,1772,27,hi,hi
Cuedts,DMCC8760894,wave1,reactive,InConNoInc,2,2,1,2451,28,,hi
Cuedts,DMCC8760894,wave1,reactive,InConInc,1,1,1,2175,29,hi,hi
Cuedts,DMCC8760894,wave1,reactive,ConNoInc,2,2,1,1749,30,,lo
Cuedts,DMCC8760894,wave1,reactive,ConNoInc,1,1,1,1751,31,,lo
Cuedts,DMCC8760894,wave1,reactive,ConNoInc,1,1,1,1583,32,,lo
Cuedts,DMCC8760894,wave1,reactive,ConNoInc,1,1,1,1191,33,,lo
Cuedts,DMCC8760894,wave1,reactive,InConInc,2,1,0,2122,34,hi,hi
Cuedts,DMCC8760894,wave1,reactive,ConNoInc,2,2,1,1311,35,,lo
Cuedts,DMCC8760894,wave1,reactive,ConNoInc,1,1,1,1329,36,,lo
Cuedts,DMCC8760894,wave1,reactive,ConNoInc,2,2,1,1351,37,,lo
Cuedts,DMCC8760894,wave1,reactive,ConNoInc,1,1,1,851,38,,lo
Cuedts,DMCC8760894,wave1,reactive,InConInc,2,2,1,1692,39,hi,hi
Cuedts,DMCC8760894,wave1,reactive,ConNoInc,2,2,1,1398,40,,lo
Cuedts,DMCC8760894,wave1,reactive,ConNoInc,1,1,1,1168,41,,lo
Cuedts,DMCC8760894,wave1,reactive,ConNoInc,1,1,1,2575,42,,lo
Cuedts,DMCC8760894,wave1,reactive,ConNoInc,1,1,1,1970,43,,lo
Cuedts,DMCC8760894,wave1,reactive,InConNoInc,2,1,0,2455,44,,hi
Cuedts,DMCC8760894,wave1,reactive,ConNoInc,2,2,1,1723,45,,lo
Cuedts,DMCC8760894,wave1,reactive,ConInc,2,2,1,1434,46,lo,lo
Cuedts,DMCC8760894,wave1,reactive,InConInc,2,2,1,2756,47,hi,hi
Cuedts,DMCC8760894,wave1,reactive,InConInc,1,1,1,1174,48,hi,hi
Cuedts,DMCC8760894,wave1,reactive,ConNoInc,2,2,1,1657,49,,lo
Cuedts,DMCC8760894,wave1,reactive,InConInc,1,1,1,2518,50,hi,hi
Cuedts,DMCC8760894,wave1,reactive,ConNoInc,1,1,1,1593,51,,lo
Cuedts,DMCC8760894,wave1,reactive,InConInc,1,1,1,1505,52,hi,hi
Cuedts,DMCC8760894,wave1,reactive,ConNoInc,1,1,1,1480,53,,lo
Cuedts,DMCC8760894,wave1,reactive,ConNoInc,2,2,1,1545,54,,lo
Cuedts,DMCC8760894,wave1,reactive,InConInc,1,1,1,1161,55,hi,hi
Cuedts,DMCC8760894,wave1,reactive,ConNoInc,1,1,1,2007,56,,lo
Cuedts,DMCC8760894,wave1,reactive,ConNoInc,2,2,1,1633,57,,lo
Cuedts,DMCC8760894,wave1,reactive,InConInc,2,2,1,1379,58,hi,hi
Cuedts,DMCC8760894,wave1,reactive,ConInc,1,1,1,1609,59,lo,lo
Cuedts,DMCC8760894,wave1,reactive,InConInc,1,1,1,1632,60,hi,hi
Cuedts,DMCC8760894,wave1,reactive,ConNoInc,2,1,0,2459,61,,lo
Cuedts,DMCC8760894,wave1,reactive,InConInc,2,2,1,1643,62,hi,hi
Cuedts,DMCC8760894,wave1,reactive,InConInc,2,2,1,1498,63,hi,hi
Cuedts,DMCC8760894,wave1,reactive,ConNoInc,2,2,1,1527,64,,lo
Cuedts,DMCC8760894,wave1,reactive,ConNoInc,1,1,1,1479,65,,lo
Cuedts,DMCC8760894,wave1,reactive,ConNoInc,2,2,1,1323,66,,lo
Cuedts,DMCC8760894,wave1,reactive,ConNoInc,2,2,1,2640,67,,lo
Cuedts,DMCC8760894,wave1,reactive,ConNoInc,1,1,1,1387,68,,lo
Cuedts,DMCC8760894,wave1,reactive,ConNoInc,1,1,1,2608,69,,lo
Cuedts,DMCC8760894,wave1,reactive,ConNoInc,1,1,1,1537,70,,lo
Cuedts,DMCC8760894,wave1,reactive,InConNoInc,2,,0,0,71,,hi
Cuedts,DMCC8760894,wave1,reactive,ConNoInc,2,2,1,1459,72,,lo
Cuedts,DMCC8760894,wave1,reactive,ConNoInc,2,2,1,1210,73,,lo
Cuedts,DMCC8760894,wave1,reactive,InConNoInc,2,2,1,1722,74,,hi
Cuedts,DMCC8760894,wave1,reactive,ConNoInc,1,1,1,1074,75,,lo
Cuedts,DMCC8760894,wave1,reactive,InConInc,1,1,1,1174,76,hi,hi
Cuedts,DMCC8760894,wave1,reactive,ConNoInc,2,2,1,2226,77,,lo
Cuedts,DMCC8760894,wave1,reactive,InConInc,2,2,1,1594,78,hi,hi
Cuedts,DMCC8760894,wave1,reactive,InConInc,1,1,1,1549,79,hi,hi
Cuedts,DMCC8760894,wave1,reactive,ConNoInc,1,1,1,991,80,,lo
Cuedts,DMCC8760894,wave1,reactive,ConNoInc,1,1,1,1097,81,,lo
Cuedts,DMCC8760894,wave1,reactive,ConNoInc,1,1,1,2047,82,,lo
Cuedts,DMCC8760894,wave1,reactive,ConNoInc,2,2,1,1477,83,,lo
Cuedts,DMCC8760894,wave1,reactive,ConNoInc,2,2,1,1396,84,,lo
Cuedts,DMCC8760894,wave1,reactive,ConNoInc,1,1,1,1405,85,,lo
Cuedts,DMCC8760894,wave1,reactive,ConNoInc,1,1,1,1613,86,,lo
Cuedts,DMCC8760894,wave1,reactive,ConInc,2,2,1,1719,87,lo,lo
Cuedts,DMCC8760894,wave1,reactive,InConNoInc,1,1,1,1629,88,,hi
Cuedts,DMCC8760894,wave1,reactive,InConInc,1,1,1,1701,89,hi,hi
Cuedts,DMCC8760894,wave1,reactive,ConInc,1,1,1,1506,90,lo,lo
Cuedts,DMCC8760894,wave1,reactive,InConNoInc,2,2,1,1582,91,,hi
Cuedts,DMCC8760894,wave1,reactive,ConNoInc,1,1,1,1206,92,,lo
Cuedts,DMCC8760894,wave1,reactive,InConInc,1,1,1,1258,93,hi,hi
Cuedts,DMCC8760894,wave1,reactive,InConNoInc,1,1,1,1472,94,,hi
Cuedts,DMCC8760894,wave1,reactive,ConNoInc,2,2,1,2925,95,,lo
Cuedts,DMCC8760894,wave1,reactive,ConNoInc,2,2,1,1572,96,,lo
Cuedts,DMCC8760894,wave1,reactive,ConNoInc,2,2,1,2089,97,,lo
Cuedts,DMCC8760894,wave1,reactive,InConInc,2,2,1,2236,98,hi,hi
Cuedts,DMCC8760894,wave1,reactive,ConNoInc,1,1,1,1202,99,,lo
Cuedts,DMCC8760894,wave1,reactive,ConNoInc,2,2,1,1540,100,,lo
Cuedts,DMCC8760894,wave1,reactive,ConInc,2,2,1,2763,101,lo,lo
Cuedts,DMCC8760894,wave1,reactive,InConInc,2,2,1,1523,102,hi,hi
Cuedts,DMCC8760894,wave1,reactive,ConNoInc,2,2,1,1421,103,,lo
Cuedts,DMCC8760894,wave1,reactive,ConNoInc,1,1,1,1996,104,,lo
Cuedts,DMCC8760894,wave1,reactive,ConNoInc,1,1,1,1048,105,,lo
Cuedts,DMCC8760894,wave1,reactive,ConNoInc,2,2,1,1765,106,,lo
Cuedts,DMCC8760894,wave1,reactive,InConInc,2,2,1,2941,107,hi,hi
Cuedts,DMCC8760894,wave1,reactive,InConInc,1,1,1,1479,108,hi,hi
Cuedts,DMCC8760894,wave3,baseline,ConNoInc,2,2,1,1032,1,,lo
Cuedts,DMCC8760894,wave3,baseline,ConNoInc,1,1,1,946,2,,lo
Cuedts,DMCC8760894,wave3,baseline,ConNoInc,2,2,1,1367,3,,lo
Cuedts,DMCC8760894,wave3,baseline,ConNoInc,2,2,1,931,4,,lo
Cuedts,DMCC8760894,wave3,baseline,ConNoInc,1,1,1,1005,5,,lo
Cuedts,DMCC8760894,wave3,baseline,ConNoInc,1,1,1,1337,6,,lo
Cuedts,DMCC8760894,wave3,baseline,InConInc,2,2,1,803,7,hi,hi
Cuedts,DMCC8760894,wave3,baseline,InConInc,1,1,1,1164,8,hi,hi
Cuedts,DMCC8760894,wave3,baseline,InConNoInc,1,1,1,854,9,,hi
Cuedts,DMCC8760894,wave3,baseline,ConNoInc,2,2,1,1128,10,,lo
Cuedts,DMCC8760894,wave3,baseline,ConInc,1,1,1,1051,11,lo,lo
Cuedts,DMCC8760894,wave3,baseline,ConNoInc,1,1,1,1108,12,,lo
Cuedts,DMCC8760894,wave3,baseline,InConInc,1,1,1,771,13,hi,hi
Cuedts,DMCC8760894,wave3,baseline,ConNoInc,2,2,1,2031,14,,lo
Cuedts,DMCC8760894,wave3,baseline,InConInc,1,2,0,3178,15,hi,hi
Cuedts,DMCC8760894,wave3,baseline,InConNoInc,1,1,1,691,16,,hi
Cuedts,DMCC8760894,wave3,baseline,ConInc,1,1,1,923,17,lo,lo
Cuedts,DMCC8760894,wave3,baseline,ConNoInc,2,2,1,647,18,,lo
Cuedts,DMCC8760894,wave3,baseline,ConNoInc,1,1,1,761,19,,lo
Cuedts,DMCC8760894,wave3,baseline,ConNoInc,2,2,1,653,20,,lo
Cuedts,DMCC8760894,wave3,baseline,InConNoInc,2,2,1,1356,21,,hi
Cuedts,DMCC8760894,wave3,baseline,ConNoInc,2,2,1,1244,22,,lo
Cuedts,DMCC8760894,wave3,baseline,ConNoInc,1,1,1,1436,23,,lo
Cuedts,DMCC8760894,wave3,baseline,InConInc,2,2,1,1019,24,hi,hi
Cuedts,DMCC8760894,wave3,baseline,InConInc,2,2,1,1891,25,hi,hi
Cuedts,DMCC8760894,wave3,baseline,ConNoInc,1,1,1,981,26,,lo
Cuedts,DMCC8760894,wave3,baseline,InConInc,1,1,1,888,27,hi,hi
Cuedts,DMCC8760894,wave3,baseline,InConInc,2,2,1,891,28,hi,hi
Cuedts,DMCC8760894,wave3,baseline,InConInc,2,2,1,1106,29,hi,hi
Cuedts,DMCC8760894,wave3,baseline,ConNoInc,2,2,1,1312,30,,lo
Cuedts,DMCC8760894,wave3,baseline,ConNoInc,1,1,1,1077,31,,lo
Cuedts,DMCC8760894,wave3,baseline,InConNoInc,2,1,0,701,32,,hi
Cuedts,DMCC8760894,wave3,baseline,ConNoInc,2,2,1,1443,33,,lo
Cuedts,DMCC8760894,wave3,baseline,ConInc,2,2,1,999,34,lo,lo
Cuedts,DMCC8760894,wave3,baseline,ConNoInc,1,1,1,969,35,,lo
Cuedts,DMCC8760894,wave3,baseline,ConNoInc,1,1,1,716,36,,lo
Cuedts,DMCC8760894,wave3,baseline,ConNoInc,1,1,1,1027,37,,lo
Cuedts,DMCC8760894,wave3,baseline,InConInc,2,2,1,1001,38,hi,hi
Cuedts,DMCC8760894,wave3,baseline,InConNoInc,2,1,0,1290,39,,hi
Cuedts,DMCC8760894,wave3,baseline,ConNoInc,2,2,1,1009,40,,lo
Cuedts,DMCC8760894,wave3,baseline,InConInc,1,2,0,2404,41,hi,hi
Cuedts,DMCC8760894,wave3,baseline,ConNoInc,2,,0,0,42,,lo
Cuedts,DMCC8760894,wave3,baseline,ConInc,2,2,1,1484,43,lo,lo
Cuedts,DMCC8760894,wave3,baseline,ConNoInc,1,1,1,849,44,,lo
Cuedts,DMCC8760894,wave3,baseline,ConNoInc,2,2,1,768,45,,lo
Cuedts,DMCC8760894,wave3,baseline,ConNoInc,1,,0,0,46,,lo
Cuedts,DMCC8760894,wave3,baseline,InConInc,2,,0,0,47,hi,hi
Cuedts,DMCC8760894,wave3,baseline,InConInc,1,,0,0,48,hi,hi
Cuedts,DMCC8760894,wave3,baseline,ConNoInc,1,1,1,833,49,,lo
Cuedts,DMCC8760894,wave3,baseline,ConNoInc,2,2,1,951,50,,lo
Cuedts,DMCC8760894,wave3,baseline,ConNoInc,1,1,1,1092,51,,lo
Cuedts,DMCC8760894,wave3,baseline,ConNoInc,1,1,1,743,52,,lo
Cuedts,DMCC8760894,wave3,baseline,InConInc,1,1,1,888,53,hi,hi
Cuedts,DMCC8760894,wave3,baseline,ConNoInc,2,,0,0,54,,lo
Cuedts,DMCC8760894,wave3,baseline,ConNoInc,2,2,1,926,55,,lo
Cuedts,DMCC8760894,wave3,baseline,InConInc,2,2,1,1079,56,hi,hi
Cuedts,DMCC8760894,wave3,baseline,ConNoInc,1,1,1,1029,57,,lo
Cuedts,DMCC8760894,wave3,baseline,ConNoInc,1,1,1,574,58,,lo
Cuedts,DMCC8760894,wave3,baseline,InConInc,2,2,1,1059,59,hi,hi
Cuedts,DMCC8760894,wave3,baseline,ConNoInc,2,2,1,1567,60,,lo
Cuedts,DMCC8760894,wave3,baseline,InConInc,2,2,1,834,61,hi,hi
Cuedts,DMCC8760894,wave3,baseline,ConNoInc,1,1,1,930,62,,lo
Cuedts,DMCC8760894,wave3,baseline,ConNoInc,2,2,1,725,63,,lo
Cuedts,DMCC8760894,wave3,baseline,ConNoInc,2,2,1,1381,64,,lo
Cuedts,DMCC8760894,wave3,baseline,ConNoInc,1,1,1,865,65,,lo
Cuedts,DMCC8760894,wave3,baseline,InConInc,1,1,1,974,66,hi,hi
Cuedts,DMCC8760894,wave3,baseline,ConNoInc,2,2,1,1413,67,,lo
Cuedts,DMCC8760894,wave3,baseline,InConNoInc,2,2,1,1101,68,,hi
Cuedts,DMCC8760894,wave3,baseline,ConNoInc,2,2,1,1885,69,,lo
Cuedts,DMCC8760894,wave3,baseline,InConInc,1,2,0,1292,70,hi,hi
Cuedts,DMCC8760894,wave3,baseline,ConNoInc,1,1,1,695,71,,lo
Cuedts,DMCC8760894,wave3,baseline,ConInc,1,1,1,1396,72,lo,lo
Cuedts,DMCC8760894,wave3,baseline,ConInc,2,2,1,1508,73,lo,lo
Cuedts,DMCC8760894,wave3,baseline,InConInc,1,1,1,1234,74,hi,hi
Cuedts,DMCC8760894,wave3,baseline,InConNoInc,1,1,1,837,75,,hi
Cuedts,DMCC8760894,wave3,baseline,ConNoInc,2,2,1,2318,76,,lo
Cuedts,DMCC8760894,wave3,baseline,ConInc,1,1,1,1060,77,lo,lo
Cuedts,DMCC8760894,wave3,baseline,ConNoInc,1,1,1,1157,78,,lo
Cuedts,DMCC8760894,wave3,baseline,InConInc,2,1,0,762,79,hi,hi
Cuedts,DMCC8760894,wave3,baseline,InConInc,1,2,0,2196,80,hi,hi
Cuedts,DMCC8760894,wave3,baseline,ConNoInc,2,1,0,1765,81,,lo
Cuedts,DMCC8760894,wave3,baseline,ConNoInc,2,2,1,1163,82,,lo
Cuedts,DMCC8760894,wave3,baseline,ConNoInc,1,1,1,767,83,,lo
Cuedts,DMCC8760894,wave3,baseline,ConNoInc,1,1,1,2101,84,,lo
Cuedts,DMCC8760894,wave3,baseline,ConNoInc,1,1,1,859,85,,lo
Cuedts,DMCC8760894,wave3,baseline,ConNoInc,1,1,1,644,86,,lo
Cuedts,DMCC8760894,wave3,baseline,InConInc,1,2,0,1172,87,hi,hi
Cuedts,DMCC8760894,wave3,baseline,InConNoInc,2,,0,0,88,,hi
Cuedts,DMCC8760894,wave3,baseline,ConNoInc,1,,0,0,89,,lo
Cuedts,DMCC8760894,wave3,baseline,ConNoInc,2,2,1,915,90,,lo
Cuedts,DMCC8760894,wave3,baseline,ConNoInc,1,,0,0,91,,lo
Cuedts,DMCC8760894,wave3,baseline,ConNoInc,2,2,1,811,92,,lo
Cuedts,DMCC8760894,wave3,baseline,InConNoInc,2,,0,0,93,,hi
Cuedts,DMCC8760894,wave3,baseline,InConInc,2,2,1,985,94,hi,hi
Cuedts,DMCC8760894,wave3,baseline,ConNoInc,2,2,1,1413,95,,lo
Cuedts,DMCC8760894,wave3,baseline,InConInc,2,2,1,1670,96,hi,hi
Cuedts,DMCC8760894,wave3,baseline,InConInc,2,2,1,862,97,hi,hi
Cuedts,DMCC8760894,wave3,baseline,InConInc,1,1,1,1599,98,hi,hi
Cuedts,DMCC8760894,wave3,baseline,ConNoInc,1,1,1,799,99,,lo
Cuedts,DMCC8760894,wave3,baseline,ConNoInc,1,1,1,938,100,,lo
Cuedts,DMCC8760894,wave3,baseline,ConNoInc,1,1,1,1060,101,,lo
Cuedts,DMCC8760894,wave3,baseline,ConNoInc,2,2,1,1858,102,,lo
Cuedts,DMCC8760894,wave3,baseline,ConNoInc,2,2,1,1428,103,,lo
Cuedts,DMCC8760894,wave3,baseline,ConNoInc,2,2,1,2484,104,,lo
Cuedts,DMCC8760894,wave3,baseline,ConInc,2,2,1,1641,105,lo,lo
Cuedts,DMCC8760894,wave3,baseline,InConInc,1,2,0,1710,106,hi,hi
Cuedts,DMCC8760894,wave3,baseline,InConNoInc,1,1,1,1135,107,,hi
Cuedts,DMCC8760894,wave3,baseline,ConNoInc,2,,0,0,108,,lo
Cuedts,DMCC8760894,wave3,proactive,ConNoInc,2,2,1,1171,1,,lo
Cuedts,DMCC8760894,wave3,proactive,ConNoInc,1,1,1,597,2,,lo
Cuedts,DMCC8760894,wave3,proactive,ConInc,1,1,1,733,3,lo,lo
Cuedts,DMCC8760894,wave3,proactive,ConNoInc,1,1,1,893,4,,lo
Cuedts,DMCC8760894,wave3,proactive,ConNoInc,2,2,1,780,5,,lo
Cuedts,DMCC8760894,wave3,proactive,ConNoInc,2,2,1,1012,6,,lo
Cuedts,DMCC8760894,wave3,proactive,InConNoInc,1,1,1,728,7,,hi
Cuedts,DMCC8760894,wave3,proactive,ConNoInc,2,2,1,987,8,,lo
Cuedts,DMCC8760894,wave3,proactive,InConInc,1,1,1,684,9,hi,hi
Cuedts,DMCC8760894,wave3,proactive,ConInc,1,1,1,770,10,lo,lo
Cuedts,DMCC8760894,wave3,proactive,ConNoInc,2,2,1,783,11,,lo
Cuedts,DMCC8760894,wave3,proactive,InConInc,1,1,1,716,12,hi,hi
Cuedts,DMCC8760894,wave3,proactive,ConNoInc,1,1,1,1122,13,,lo
Cuedts,DMCC8760894,wave3,proactive,InConInc,1,1,1,651,14,hi,hi
Cuedts,DMCC8760894,wave3,proactive,InConNoInc,1,2,0,738,15,,hi
Cuedts,DMCC8760894,wave3,proactive,InConInc,2,2,1,844,16,hi,hi
Cuedts,DMCC8760894,wave3,proactive,ConNoInc,1,1,1,981,17,,lo
Cuedts,DMCC8760894,wave3,proactive,ConNoInc,2,2,1,1035,18,,lo
Cuedts,DMCC8760894,wave3,proactive,ConNoInc,1,1,1,729,19,,lo
Cuedts,DMCC8760894,wave3,proactive,ConNoInc,1,1,1,913,20,,lo
Cuedts,DMCC8760894,wave3,proactive,InConInc,2,2,1,947,21,hi,hi
Cuedts,DMCC8760894,wave3,proactive,InConNoInc,2,2,1,742,22,,hi
Cuedts,DMCC8760894,wave3,proactive,InConNoInc,2,2,1,1702,23,,hi
Cuedts,DMCC8760894,wave3,proactive,InConInc,2,2,1,1073,24,hi,hi
Cuedts,DMCC8760894,wave3,proactive,ConNoInc,2,2,1,1008,25,,lo
Cuedts,DMCC8760894,wave3,proactive,InConInc,1,1,1,976,26,hi,hi
Cuedts,DMCC8760894,wave3,proactive,ConNoInc,1,1,1,844,27,,lo
Cuedts,DMCC8760894,wave3,proactive,InConInc,2,2,1,699,28,hi,hi
Cuedts,DMCC8760894,wave3,proactive,ConNoInc,1,1,1,704,29,,lo
Cuedts,DMCC8760894,wave3,proactive,ConInc,2,2,1,1482,30,lo,lo
Cuedts,DMCC8760894,wave3,proactive,ConNoInc,2,2,1,1018,31,,lo
Cuedts,DMCC8760894,wave3,proactive,ConNoInc,1,1,1,942,32,,lo
Cuedts,DMCC8760894,wave3,proactive,ConNoInc,2,2,1,1196,33,,lo
Cuedts,DMCC8760894,wave3,proactive,ConNoInc,1,1,1,1238,34,,lo
Cuedts,DMCC8760894,wave3,proactive,ConNoInc,2,2,1,819,35,,lo
Cuedts,DMCC8760894,wave3,proactive,InConInc,2,2,1,694,36,hi,hi
Cuedts,DMCC8760894,wave3,proactive,ConNoInc,1,1,1,881,37,,lo
Cuedts,DMCC8760894,wave3,proactive,ConNoInc,2,2,1,1196,38,,lo
Cuedts,DMCC8760894,wave3,proactive,ConNoInc,1,1,1,619,39,,lo
Cuedts,DMCC8760894,wave3,proactive,InConInc,1,1,1,703,40,hi,hi
Cuedts,DMCC8760894,wave3,proactive,ConNoInc,2,2,1,1028,41,,lo
Cuedts,DMCC8760894,wave3,proactive,ConNoInc,1,1,1,759,42,,lo
Cuedts,DMCC8760894,wave3,proactive,ConNoInc,2,2,1,855,43,,lo
Cuedts,DMCC8760894,wave3,proactive,ConNoInc,2,2,1,764,44,,lo
Cuedts,DMCC8760894,wave3,proactive,InConNoInc,2,2,1,1231,45,,hi
Cuedts,DMCC8760894,wave3,proactive,InConInc,2,2,1,825,46,hi,hi
Cuedts,DMCC8760894,wave3,proactive,InConInc,1,1,1,685,47,hi,hi
Cuedts,DMCC8760894,wave3,proactive,ConNoInc,1,1,1,495,48,,lo
Cuedts,DMCC8760894,wave3,proactive,ConInc,2,2,1,606,49,lo,lo
Cuedts,DMCC8760894,wave3,proactive,ConNoInc,1,1,1,709,50,,lo
Cuedts,DMCC8760894,wave3,proactive,InConInc,1,1,1,666,51,hi,hi
Cuedts,DMCC8760894,wave3,proactive,ConNoInc,2,2,1,1194,52,,lo
Cuedts,DMCC8760894,wave3,proactive,InConInc,2,2,1,909,53,hi,hi
Cuedts,DMCC8760894,wave3,proactive,ConNoInc,1,1,1,1207,54,,lo
Cuedts,DMCC8760894,wave3,proactive,ConNoInc,2,2,1,855,55,,lo
Cuedts,DMCC8760894,wave3,proactive,ConNoInc,1,1,1,781,56,,lo
Cuedts,DMCC8760894,wave3,proactive,ConNoInc,2,2,1,1132,57,,lo
Cuedts,DMCC8760894,wave3,proactive,InConInc,2,2,1,903,58,hi,hi
Cuedts,DMCC8760894,wave3,proactive,ConInc,1,1,1,808,59,lo,lo
Cuedts,DMCC8760894,wave3,proactive,InConInc,1,1,1,701,60,hi,hi
Cuedts,DMCC8760894,wave3,proactive,ConNoInc,2,2,1,1366,61,,lo
Cuedts,DMCC8760894,wave3,proactive,ConNoInc,1,1,1,1245,62,,lo
Cuedts,DMCC8760894,wave3,proactive,InConNoInc,2,2,1,1196,63,,hi
Cuedts,DMCC8760894,wave3,proactive,ConNoInc,1,1,1,811,64,,lo
Cuedts,DMCC8760894,wave3,proactive,ConNoInc,2,2,1,972,65,,lo
Cuedts,DMCC8760894,wave3,proactive,ConNoInc,2,2,1,792,66,,lo
Cuedts,DMCC8760894,wave3,proactive,InConInc,1,1,1,622,67,hi,hi
Cuedts,DMCC8760894,wave3,proactive,InConInc,2,2,1,1324,68,hi,hi
Cuedts,DMCC8760894,wave3,proactive,ConNoInc,1,1,1,1207,69,,lo
Cuedts,DMCC8760894,wave3,proactive,InConInc,2,2,1,741,70,hi,hi
Cuedts,DMCC8760894,wave3,proactive,ConNoInc,2,2,1,1078,71,,lo
Cuedts,DMCC8760894,wave3,proactive,ConNoInc,1,2,0,1248,72,,lo
Cuedts,DMCC8760894,wave3,proactive,InConInc,1,1,1,586,73,hi,hi
Cuedts,DMCC8760894,wave3,proactive,ConNoInc,1,1,1,881,74,,lo
Cuedts,DMCC8760894,wave3,proactive,ConInc,1,1,1,610,75,lo,lo
Cuedts,DMCC8760894,wave3,proactive,ConNoInc,2,2,1,1317,76,,lo
Cuedts,DMCC8760894,wave3,proactive,InConInc,2,2,1,905,77,hi,hi
Cuedts,DMCC8760894,wave3,proactive,ConNoInc,1,1,1,846,78,,lo
Cuedts,DMCC8760894,wave3,proactive,ConNoInc,1,1,1,881,79,,lo
Cuedts,DMCC8760894,wave3,proactive,ConNoInc,1,1,1,961,80,,lo
Cuedts,DMCC8760894,wave3,proactive,ConNoInc,2,2,1,912,81,,lo
Cuedts,DMCC8760894,wave3,proactive,InConInc,1,1,1,581,82,hi,hi
Cuedts,DMCC8760894,wave3,proactive,InConNoInc,1,1,1,495,83,,hi
Cuedts,DMCC8760894,wave3,proactive,ConNoInc,1,1,1,881,84,,lo
Cuedts,DMCC8760894,wave3,proactive,InConNoInc,2,2,1,940,85,,hi
Cuedts,DMCC8760894,wave3,proactive,ConNoInc,2,2,1,1847,86,,lo
Cuedts,DMCC8760894,wave3,proactive,ConInc,2,2,1,805,87,lo,lo
Cuedts,DMCC8760894,wave3,proactive,ConNoInc,2,2,1,881,88,,lo
Cuedts,DMCC8760894,wave3,proactive,ConNoInc,1,1,1,875,89,,lo
Cuedts,DMCC8760894,wave3,proactive,InConInc,1,1,1,880,90,hi,hi
Cuedts,DMCC8760894,wave3,proactive,InConInc,1,1,1,699,91,hi,hi
Cuedts,DMCC8760894,wave3,proactive,ConNoInc,1,1,1,930,92,,lo
Cuedts,DMCC8760894,wave3,proactive,ConInc,2,2,1,698,93,lo,lo
Cuedts,DMCC8760894,wave3,proactive,ConNoInc,2,2,1,716,94,,lo
Cuedts,DMCC8760894,wave3,proactive,ConNoInc,1,1,1,991,95,,lo
Cuedts,DMCC8760894,wave3,proactive,ConNoInc,2,2,1,736,96,,lo
Cuedts,DMCC8760894,wave3,proactive,ConNoInc,1,1,1,881,97,,lo
Cuedts,DMCC8760894,wave3,proactive,ConNoInc,2,2,1,954,98,,lo
Cuedts,DMCC8760894,wave3,proactive,InConInc,2,2,1,606,99,hi,hi
Cuedts,DMCC8760894,wave3,proactive,InConInc,2,2,1,872,100,hi,hi
Cuedts,DMCC8760894,wave3,proactive,InConInc,1,1,1,516,101,hi,hi
Cuedts,DMCC8760894,wave3,proactive,ConNoInc,1,1,1,824,102,,lo
Cuedts,DMCC8760894,wave3,proactive,InConNoInc,1,1,1,610,103,,hi
Cuedts,DMCC8760894,wave3,proactive,InConInc,2,1,0,823,104,hi,hi
Cuedts,DMCC8760894,wave3,proactive,ConNoInc,2,2,1,890,105,,lo
Cuedts,DMCC8760894,wave3,proactive,ConNoInc,2,2,1,876,106,,lo
Cuedts,DMCC8760894,wave3,proactive,ConNoInc,2,2,1,739,107,,lo
Cuedts,DMCC8760894,wave3,proactive,InConNoInc,2,2,1,958,108,,hi
Cuedts,DMCC8760894,wave3,reactive,ConNoInc,2,2,1,1004,1,,lo
Cuedts,DMCC8760894,wave3,reactive,InConNoInc,1,1,1,812,2,,hi
Cuedts,DMCC8760894,wave3,reactive,ConNoInc,2,2,1,895,3,,lo
Cuedts,DMCC8760894,wave3,reactive,InConNoInc,1,1,1,907,4,,hi
Cuedts,DMCC8760894,wave3,reactive,ConInc,1,1,1,1690,5,lo,lo
Cuedts,DMCC8760894,wave3,reactive,ConNoInc,2,2,1,1503,6,,lo
Cuedts,DMCC8760894,wave3,reactive,ConNoInc,2,2,1,1263,7,,lo
Cuedts,DMCC8760894,wave3,reactive,ConNoInc,2,2,1,780,8,,lo
Cuedts,DMCC8760894,wave3,reactive,InConInc,1,2,0,1738,9,hi,hi
Cuedts,DMCC8760894,wave3,reactive,ConNoInc,1,1,1,2243,10,,lo
Cuedts,DMCC8760894,wave3,reactive,InConInc,1,1,1,1228,11,hi,hi
Cuedts,DMCC8760894,wave3,reactive,ConNoInc,1,1,1,935,12,,lo
Cuedts,DMCC8760894,wave3,reactive,ConNoInc,2,2,1,1277,13,,lo
Cuedts,DMCC8760894,wave3,reactive,InConInc,1,1,1,851,14,hi,hi
Cuedts,DMCC8760894,wave3,reactive,InConInc,2,2,1,1369,15,hi,hi
Cuedts,DMCC8760894,wave3,reactive,ConNoInc,1,1,1,1401,16,,lo
Cuedts,DMCC8760894,wave3,reactive,ConNoInc,1,1,1,1183,17,,lo
Cuedts,DMCC8760894,wave3,reactive,ConInc,1,1,1,1001,18,lo,lo
Cuedts,DMCC8760894,wave3,reactive,InConInc,1,1,1,1386,19,hi,hi
Cuedts,DMCC8760894,wave3,reactive,ConNoInc,1,1,1,766,20,,lo
Cuedts,DMCC8760894,wave3,reactive,ConNoInc,2,2,1,1297,21,,lo
Cuedts,DMCC8760894,wave3,reactive,ConNoInc,1,1,1,793,22,,lo
Cuedts,DMCC8760894,wave3,reactive,ConNoInc,1,1,1,850,23,,lo
Cuedts,DMCC8760894,wave3,reactive,InConNoInc,2,2,1,1046,24,,hi
Cuedts,DMCC8760894,wave3,reactive,ConNoInc,2,2,1,835,25,,lo
Cuedts,DMCC8760894,wave3,reactive,InConNoInc,2,2,1,1658,26,,hi
Cuedts,DMCC8760894,wave3,reactive,ConNoInc,2,2,1,1660,27,,lo
Cuedts,DMCC8760894,wave3,reactive,InConInc,2,2,1,1283,28,hi,hi
Cuedts,DMCC8760894,wave3,reactive,ConInc,2,2,1,1119,29,lo,lo
Cuedts,DMCC8760894,wave3,reactive,ConNoInc,2,2,1,995,30,,lo
Cuedts,DMCC8760894,wave3,reactive,ConNoInc,1,1,1,982,31,,lo
Cuedts,DMCC8760894,wave3,reactive,InConInc,2,2,1,1077,32,hi,hi
Cuedts,DMCC8760894,wave3,reactive,ConNoInc,1,1,1,906,33,,lo
Cuedts,DMCC8760894,wave3,reactive,ConNoInc,1,1,1,1057,34,,lo
Cuedts,DMCC8760894,wave3,reactive,InConInc,2,2,1,1669,35,hi,hi
Cuedts,DMCC8760894,wave3,reactive,InConInc,2,2,1,1784,36,hi,hi
Cuedts,DMCC8760894,wave3,reactive,ConNoInc,1,1,1,1418,37,,lo
Cuedts,DMCC8760894,wave3,reactive,InConInc,2,2,1,1278,38,hi,hi
Cuedts,DMCC8760894,wave3,reactive,ConNoInc,2,2,1,1343,39,,lo
Cuedts,DMCC8760894,wave3,reactive,ConNoInc,2,2,1,978,40,,lo
Cuedts,DMCC8760894,wave3,reactive,ConNoInc,1,1,1,1050,41,,lo
Cuedts,DMCC8760894,wave3,reactive,ConNoInc,2,2,1,939,42,,lo
Cuedts,DMCC8760894,wave3,reactive,InConInc,1,1,1,1317,43,hi,hi
Cuedts,DMCC8760894,wave3,reactive,InConNoInc,2,2,1,979,44,,hi
Cuedts,DMCC8760894,wave3,reactive,ConNoInc,2,2,1,1075,45,,lo
Cuedts,DMCC8760894,wave3,reactive,ConNoInc,2,2,1,1011,46,,lo
Cuedts,DMCC8760894,wave3,reactive,InConInc,1,1,1,1623,47,hi,hi
Cuedts,DMCC8760894,wave3,reactive,ConNoInc,1,1,1,1156,48,,lo
Cuedts,DMCC8760894,wave3,reactive,InConInc,1,1,1,1393,49,hi,hi
Cuedts,DMCC8760894,wave3,reactive,ConNoInc,1,1,1,1275,50,,lo
Cuedts,DMCC8760894,wave3,reactive,ConNoInc,1,1,1,868,51,,lo
Cuedts,DMCC8760894,wave3,reactive,ConInc,2,2,1,1418,52,lo,lo
Cuedts,DMCC8760894,wave3,reactive,ConNoInc,1,1,1,1059,53,,lo
Cuedts,DMCC8760894,wave3,reactive,InConInc,2,2,1,860,54,hi,hi
Cuedts,DMCC8760894,wave3,reactive,ConNoInc,1,1,1,882,55,,lo
Cuedts,DMCC8760894,wave3,reactive,ConNoInc,2,2,1,1490,56,,lo
Cuedts,DMCC8760894,wave3,reactive,ConNoInc,2,2,1,902,57,,lo
Cuedts,DMCC8760894,wave3,reactive,ConNoInc,2,2,1,1120,58,,lo
Cuedts,DMCC8760894,wave3,reactive,ConInc,1,1,1,1085,59,lo,lo
Cuedts,DMCC8760894,wave3,reactive,ConNoInc,2,2,1,1693,60,,lo
Cuedts,DMCC8760894,wave3,reactive,ConNoInc,1,1,1,785,61,,lo
Cuedts,DMCC8760894,wave3,reactive,InConNoInc,2,2,1,1078,62,,hi
Cuedts,DMCC8760894,wave3,reactive,InConInc,1,1,1,1261,63,hi,hi
Cuedts,DMCC8760894,wave3,reactive,InConInc,2,2,1,980,64,hi,hi
Cuedts,DMCC8760894,wave3,reactive,ConNoInc,1,1,1,931,65,,lo
Cuedts,DMCC8760894,wave3,reactive,InConInc,2,2,1,1569,66,hi,hi
Cuedts,DMCC8760894,wave3,reactive,ConNoInc,1,1,1,861,67,,lo
Cuedts,DMCC8760894,wave3,reactive,ConNoInc,1,1,1,1612,68,,lo
Cuedts,DMCC8760894,wave3,reactive,InConInc,1,1,1,1074,69,hi,hi
Cuedts,DMCC8760894,wave3,reactive,ConNoInc,2,2,1,1348,70,,lo
Cuedts,DMCC8760894,wave3,reactive,ConNoInc,2,2,1,1109,71,,lo
Cuedts,DMCC8760894,wave3,reactive,InConInc,2,,0,0,72,hi,hi
Cuedts,DMCC8760894,wave3,reactive,ConNoInc,2,2,1,979,73,,lo
Cuedts,DMCC8760894,wave3,reactive,ConNoInc,1,1,1,1016,74,,lo
Cuedts,DMCC8760894,wave3,reactive,InConInc,1,1,1,910,75,hi,hi
Cuedts,DMCC8760894,wave3,reactive,ConNoInc,1,1,1,1319,76,,lo
Cuedts,DMCC8760894,wave3,reactive,InConInc,1,1,1,1180,77,hi,hi
Cuedts,DMCC8760894,wave3,reactive,ConNoInc,1,1,1,847,78,,lo
Cuedts,DMCC8760894,wave3,reactive,ConNoInc,2,2,1,1464,79,,lo
Cuedts,DMCC8760894,wave3,reactive,InConNoInc,1,1,1,999,80,,hi
Cuedts,DMCC8760894,wave3,reactive,ConNoInc,1,1,1,885,81,,lo
Cuedts,DMCC8760894,wave3,reactive,ConNoInc,2,2,1,1162,82,,lo
Cuedts,DMCC8760894,wave3,reactive,ConInc,1,1,1,1172,83,lo,lo
Cuedts,DMCC8760894,wave3,reactive,ConNoInc,1,1,1,1256,84,,lo
Cuedts,DMCC8760894,wave3,reactive,ConInc,2,2,1,2844,85,lo,lo
Cuedts,DMCC8760894,wave3,reactive,InConInc,2,2,1,1202,86,hi,hi
Cuedts,DMCC8760894,wave3,reactive,ConNoInc,2,2,1,1301,87,,lo
Cuedts,DMCC8760894,wave3,reactive,ConNoInc,1,1,1,920,88,,lo
Cuedts,DMCC8760894,wave3,reactive,InConInc,1,1,1,1463,89,hi,hi
Cuedts,DMCC8760894,wave3,reactive,InConNoInc,2,2,1,1211,90,,hi
Cuedts,DMCC8760894,wave3,reactive,InConInc,2,2,1,1025,91,hi,hi
Cuedts,DMCC8760894,wave3,reactive,ConNoInc,2,2,1,1906,92,,lo
Cuedts,DMCC8760894,wave3,reactive,ConNoInc,2,2,1,1305,93,,lo
Cuedts,DMCC8760894,wave3,reactive,InConInc,1,1,1,1212,94,hi,hi
Cuedts,DMCC8760894,wave3,reactive,InConNoInc,1,1,1,1915,95,,hi
Cuedts,DMCC8760894,wave3,reactive,ConNoInc,2,2,1,1310,96,,lo
Cuedts,DMCC8760894,wave3,reactive,ConNoInc,2,2,1,827,97,,lo
Cuedts,DMCC8760894,wave3,reactive,ConNoInc,1,1,1,771,98,,lo
Cuedts,DMCC8760894,wave3,reactive,ConNoInc,2,2,1,933,99,,lo
Cuedts,DMCC8760894,wave3,reactive,InConNoInc,2,2,1,1292,100,,hi
Cuedts,DMCC8760894,wave3,reactive,ConNoInc,1,1,1,1625,101,,lo
Cuedts,DMCC8760894,wave3,reactive,InConInc,2,2,1,1334,102,hi,hi
Cuedts,DMCC8760894,wave3,reactive,ConInc,2,2,1,1484,103,lo,lo
Cuedts,DMCC8760894,wave3,reactive,InConInc,1,1,1,1164,104,hi,hi
Cuedts,DMCC8760894,wave3,reactive,ConNoInc,2,2,1,1211,105,,lo
Cuedts,DMCC8760894,wave3,reactive,InConInc,2,2,1,951,106,hi,hi
Cuedts,DMCC8760894,wave3,reactive,ConNoInc,1,1,1,971,107,,lo
Cuedts,DMCC8760894,wave3,reactive,ConNoInc,1,1,1,2249,108,,lo
Stern,DMCC8760894,wave1,baseline,LL5NP,1,1,1,915,1,,5
Stern,DMCC8760894,wave1,baseline,not5NN,2,2,1,874,2,,8
Stern,DMCC8760894,wave1,baseline,not5NN,2,2,1,836,3,,8
Stern,DMCC8760894,wave1,baseline,LL5NP,1,1,1,1275,4,,5
Stern,DMCC8760894,wave1,baseline,not5NN,2,2,1,749,5,,6
Stern,DMCC8760894,wave1,baseline,not5NP,1,2,0,1063,6,,8
Stern,DMCC8760894,wave1,baseline,LL5NN,2,2,1,901,7,lo,5
Stern,DMCC8760894,wave1,baseline,not5NP,1,1,1,1408,8,,7
Stern,DMCC8760894,wave1,baseline,LL5NN,2,2,1,751,9,lo,5
Stern,DMCC8760894,wave1,baseline,LL5NP,1,1,1,1493,10,,5
Stern,DMCC8760894,wave1,baseline,not5NP,1,2,0,778,11,,7
Stern,DMCC8760894,wave1,baseline,not5NP,1,1,1,1061,12,,8
Stern,DMCC8760894,wave1,baseline,not5NN,2,2,1,1016,13,,7
Stern,DMCC8760894,wave1,baseline,not5NP,1,2,0,1387,14,,6
Stern,DMCC8760894,wave1,baseline,LL5RN,2,2,1,980,15,hi,5
Stern,DMCC8760894,wave1,baseline,not5NN,2,2,1,1275,16,,6
Stern,DMCC8760894,wave1,baseline,not5NN,2,2,1,1007,17,,8
Stern,DMCC8760894,wave1,baseline,not5NP,1,1,1,1194,18,,7
Stern,DMCC8760894,wave1,baseline,not5NP,1,1,1,1394,19,,7
Stern,DMCC8760894,wave1,baseline,not5NP,1,1,1,1030,20,,8
Stern,DMCC8760894,wave1,baseline,LL5NP,1,1,1,1197,21,,5
Stern,DMCC8760894,wave1,baseline,not5NN,2,2,1,988,22,,7
Stern,DMCC8760894,wave1,baseline,LL5NP,1,1,1,1113,23,,5
Stern,DMCC8760894,wave1,baseline,not5NN,2,2,1,1064,24,,8
Stern,DMCC8760894,wave1,baseline,LL5RN,2,1,0,1138,25,hi,5
Stern,DMCC8760894,wave1,baseline,LL5NN,2,2,1,1174,26,lo,5
Stern,DMCC8760894,wave1,baseline,not5NP,1,1,1,1164,27,,8
Stern,DMCC8760894,wave1,baseline,not5NP,1,2,0,1448,28,,8
Stern,DMCC8760894,wave1,baseline,LL5NP,1,,0,0,29,,5
Stern,DMCC8760894,wave1,baseline,LL5NN,2,2,1,1048,30,lo,5
Stern,DMCC8760894,wave1,baseline,LL5NN,2,2,1,1270,31,lo,5
Stern,DMCC8760894,wave1,baseline,LL5NP,1,1,1,1087,32,,5
Stern,DMCC8760894,wave1,baseline,not5NP,1,2,0,938,33,,8
Stern,DMCC8760894,wave1,baseline,LL5RN,2,2,1,1338,34,hi,5
Stern,DMCC8760894,wave1,baseline,not5NN,2,2,1,884,35,,8
Stern,DMCC8760894,wave1,baseline,not5NP,1,2,0,895,36,,7
Stern,DMCC8760894,wave1,baseline,not5NP,1,1,1,789,37,,8
Stern,DMCC8760894,wave1,baseline,LL5NN,2,2,1,1234,38,lo,5
Stern,DMCC8760894,wave1,baseline,not5NP,1,2,0,1417,39,,6
Stern,DMCC8760894,wave1,baseline,not5RN,2,2,1,1277,40,,8
Stern,DMCC8760894,wave1,baseline,LL5NP,1,,0,0,41,,5
Stern,DMCC8760894,wave1,baseline,not5NN,2,,0,0,42,,8
Stern,DMCC8760894,wave1,baseline,LL5NP,1,1,1,1014,43,,5
Stern,DMCC8760894,wave1,baseline,not5NN,2,2,1,1057,44,,7
Stern,DMCC8760894,wave1,baseline,not5NN,2,2,1,1290,45,,7
Stern,DMCC8760894,wave1,baseline,LL5NP,1,1,1,866,46,,5
Stern,DMCC8760894,wave1,baseline,LL5NP,1,1,1,939,47,,5
Stern,DMCC8760894,wave1,baseline,LL5NN,2,2,1,1343,48,lo,5
Stern,DMCC8760894,wave1,baseline,not5NN,2,2,1,1029,49,,6
Stern,DMCC8760894,wave1,baseline,not5NN,2,2,1,1404,50,,8
Stern,DMCC8760894,wave1,baseline,LL5NP,1,1,1,1130,51,,5
Stern,DMCC8760894,wave1,baseline,LL5RN,2,2,1,1328,52,hi,5
Stern,DMCC8760894,wave1,baseline,LL5NN,2,2,1,897,53,lo,5
Stern,DMCC8760894,wave1,baseline,not5NN,2,2,1,1030,54,,7
Stern,DMCC8760894,wave1,baseline,not5NP,1,1,1,993,55,,6
Stern,DMCC8760894,wave1,baseline,not5NP,1,2,0,1413,56,,8
Stern,DMCC8760894,wave1,baseline,not5NN,2,2,1,1532,57,,8
Stern,DMCC8760894,wave1,baseline,not5NP,1,1,1,1111,58,,7
Stern,DMCC8760894,wave1,baseline,not5NP,1,1,1,1626,59,,8
Stern,DMCC8760894,wave1,baseline,not5RN,2,2,1,1836,60,,7
Stern,DMCC8760894,wave1,baseline,LL5NP,1,1,1,1096,61,,5
Stern,DMCC8760894,wave1,baseline,not5NN,2,2,1,1814,62,,8
Stern,DMCC8760894,wave1,baseline,not5RN,2,,0,0,63,,8
Stern,DMCC8760894,wave1,baseline,LL5NP,1,1,1,863,64,,5
Stern,DMCC8760894,wave1,baseline,LL5RN,2,1,0,1586,65,hi,5
Stern,DMCC8760894,wave1,baseline,not5NN,2,2,1,1068,66,,6
Stern,DMCC8760894,wave1,baseline,not5NP,1,2,0,991,67,,8
Stern,DMCC8760894,wave1,baseline,not5NN,2,2,1,872,68,,7
Stern,DMCC8760894,wave1,baseline,LL5NN,2,2,1,1009,69,lo,5
Stern,DMCC8760894,wave1,baseline,not5NP,1,2,0,1136,70,,8
Stern,DMCC8760894,wave1,baseline,LL5NP,1,1,1,1418,71,,5
Stern,DMCC8760894,wave1,baseline,not5NP,1,1,1,860,72,,7
Stern,DMCC8760894,wave1,baseline,LL5NN,2,2,1,1433,73,lo,5
Stern,DMCC8760894,wave1,baseline,not5NN,2,2,1,879,74,,8
Stern,DMCC8760894,wave1,baseline,not5NP,1,2,0,987,75,,7
Stern,DMCC8760894,wave1,baseline,not5NN,2,2,1,875,76,,7
Stern,DMCC8760894,wave1,baseline,not5NP,1,1,1,1073,77,,7
Stern,DMCC8760894,wave1,baseline,not5NP,1,1,1,852,78,,6
Stern,DMCC8760894,wave1,baseline,not5NN,2,2,1,1476,79,,7
Stern,DMCC8760894,wave1,baseline,not5NP,1,2,0,1066,80,,8
Stern,DMCC8760894,wave1,baseline,not5NP,1,2,0,779,81,,8
Stern,DMCC8760894,wave1,baseline,LL5NP,1,,0,0,82,,5
Stern,DMCC8760894,wave1,baseline,not5NN,2,,0,0,83,,8
Stern,DMCC8760894,wave1,baseline,LL5NN,2,2,1,893,84,lo,5
Stern,DMCC8760894,wave1,baseline,LL5NP,1,,0,0,85,,5
Stern,DMCC8760894,wave1,baseline,LL5RN,2,,0,0,86,hi,5
Stern,DMCC8760894,wave1,baseline,LL5NP,1,1,1,1618,87,,5
Stern,DMCC8760894,wave1,baseline,not5NN,2,2,1,969,88,,6
Stern,DMCC8760894,wave1,baseline,not5NP,1,1,1,1132,89,,8
Stern,DMCC8760894,wave1,baseline,LL5NN,2,,0,0,90,lo,5
Stern,DMCC8760894,wave1,proactive,not5NN,2,2,1,1269,1,,2
Stern,DMCC8760894,wave1,proactive,LL5NP,1,1,1,1011,2,,5
Stern,DMCC8760894,wave1,proactive,not5NN,2,2,1,894,3,,4
Stern,DMCC8760894,wave1,proactive,LL5NP,1,,0,0,4,,5
Stern,DMCC8760894,wave1,proactive,not5NP,1,1,1,1146,5,,3
Stern,DMCC8760894,wave1,proactive,LL5NN,2,2,1,740,6,lo,5
Stern,DMCC8760894,wave1,proactive,not5NN,2,2,1,919,7,,2
Stern,DMCC8760894,wave1,proactive,not5NP,1,1,1,1137,8,,4
Stern,DMCC8760894,wave1,proactive,LL5RN,2,1,0,1175,9,hi,5
Stern,DMCC8760894,wave1,proactive,LL5NN,2,2,1,926,10,lo,5
Stern,DMCC8760894,wave1,proactive,not5NN,2,2,1,1427,11,,3
Stern,DMCC8760894,wave1,proactive,LL5NP,1,1,1,920,12,,5
Stern,DMCC8760894,wave1,proactive,not5NP,1,1,1,773,13,,2
Stern,DMCC8760894,wave1,proactive,not5NP,1,1,1,1073,14,,2
Stern,DMCC8760894,wave1,proactive,not5NP,1,1,1,682,15,,3
Stern,DMCC8760894,wave1,proactive,LL5NP,1,1,1,805,16,,5
Stern,DMCC8760894,wave1,proactive,LL5NN,2,2,1,754,17,lo,5
Stern,DMCC8760894,wave1,proactive,not5NN,2,2,1,793,18,,2
Stern,DMCC8760894,wave1,proactive,not5NP,1,1,1,1394,19,,2
Stern,DMCC8760894,wave1,proactive,LL5NP,1,1,1,824,20,,5
Stern,DMCC8760894,wave1,proactive,not5NP,1,1,1,1020,21,,3
Stern,DMCC8760894,wave1,proactive,not5NN,2,2,1,1168,22,,4
Stern,DMCC8760894,wave1,proactive,LL5NN,2,2,1,886,23,lo,5
Stern,DMCC8760894,wave1,proactive,not5NN,2,2,1,985,24,,3
Stern,DMCC8760894,wave1,proactive,not5NP,1,2,0,1345,25,,3
Stern,DMCC8760894,wave1,proactive,LL5RN,2,2,1,1133,26,hi,5
Stern,DMCC8760894,wave1,proactive,LL5NP,1,1,1,1058,27,,5
Stern,DMCC8760894,wave1,proactive,not5NN,2,2,1,1078,28,,2
Stern,DMCC8760894,wave1,proactive,not5NP,1,1,1,990,29,,2
Stern,DMCC8760894,wave1,proactive,not5NP,1,1,1,918,30,,2
Stern,DMCC8760894,wave1,proactive,not5NP,1,1,1,1117,31,,4
Stern,DMCC8760894,wave1,proactive,not5NN,2,2,1,1200,32,,3
Stern,DMCC8760894,wave1,proactive,LL5NN,2,2,1,1445,33,lo,5
Stern,DMCC8760894,wave1,proactive,LL5NP,1,1,1,1272,34,,5
Stern,DMCC8760894,wave1,proactive,LL5NP,1,1,1,860,35,,5
Stern,DMCC8760894,wave1,proactive,not5NP,1,1,1,1009,36,,3
Stern,DMCC8760894,wave1,proactive,not5NN,2,,0,0,37,,2
Stern,DMCC8760894,wave1,proactive,LL5RN,2,2,1,941,38,hi,5
Stern,DMCC8760894,wave1,proactive,not5NP,1,1,1,995,39,,2
Stern,DMCC8760894,wave1,proactive,not5NN,2,2,1,913,40,,3
Stern,DMCC8760894,wave1,proactive,LL5NP,1,1,1,1425,41,,5
Stern,DMCC8760894,wave1,proactive,not5NN,2,,0,0,42,,2
Stern,DMCC8760894,wave1,proactive,not5RN,2,2,1,814,43,,2
Stern,DMCC8760894,wave1,proactive,LL5NN,2,2,1,982,44,lo,5
Stern,DMCC8760894,wave1,proactive,not5NP,1,1,1,977,45,,2
Stern,DMCC8760894,wave1,proactive,not5NN,2,2,1,769,46,,4
Stern,DMCC8760894,wave1,proactive,LL5NP,1,1,1,766,47,,5
Stern,DMCC8760894,wave1,proactive,not5NP,1,1,1,859,48,,4
Stern,DMCC8760894,wave1,proactive,not5NP,1,1,1,729,49,,3
Stern,DMCC8760894,wave1,proactive,not5NP,1,1,1,709,50,,2
Stern,DMCC8760894,wave1,proactive,LL5RN,2,2,1,1062,51,hi,5
Stern,DMCC8760894,wave1,proactive,not5NN,2,2,1,1110,52,,2
Stern,DMCC8760894,wave1,proactive,not5NN,2,2,1,819,53,,2
Stern,DMCC8760894,wave1,proactive,not5NN,2,2,1,974,54,,3
Stern,DMCC8760894,wave1,proactive,not5RN,2,2,1,989,55,,3
Stern,DMCC8760894,wave1,proactive,LL5NN,2,2,1,895,56,lo,5
Stern,DMCC8760894,wave1,proactive,LL5NP,1,1,1,902,57,,5
Stern,DMCC8760894,wave1,proactive,not5NP,1,1,1,1105,58,,2
Stern,DMCC8760894,wave1,proactive,LL5NN,2,2,1,1100,59,lo,5
Stern,DMCC8760894,wave1,proactive,LL5NP,1,1,1,840,60,,5
Stern,DMCC8760894,wave1,proactive,not5NP,1,2,0,1291,61,,3
Stern,DMCC8760894,wave1,proactive,not5NP,1,1,1,972,62,,3
Stern,DMCC8760894,wave1,proactive,LL5NP,1,1,1,895,63,,5
Stern,DMCC8760894,wave1,proactive,LL5NN,2,2,1,962,64,lo,5
Stern,DMCC8760894,wave1,proactive,not5RN,2,2,1,1183,65,,2
Stern,DMCC8760894,wave1,proactive,LL5NP,1,1,1,907,66,,5
Stern,DMCC8760894,wave1,proactive,not5NN,2,2,1,917,67,,4
Stern,DMCC8760894,wave1,proactive,not5NN,2,2,1,1212,68,,2
Stern,DMCC8760894,wave1,proactive,not5NN,2,2,1,1530,69,,3
Stern,DMCC8760894,wave1,proactive,not5NP,1,1,1,824,70,,2
Stern,DMCC8760894,wave1,proactive,LL5NP,1,1,1,1213,71,,5
Stern,DMCC8760894,wave1,proactive,not5NN,2,2,1,986,72,,2
Stern,DMCC8760894,wave1,proactive,not5NP,1,1,1,1087,73,,2
Stern,DMCC8760894,wave1,proactive,LL5NN,2,2,1,1439,74,lo,5
Stern,DMCC8760894,wave1,proactive,LL5RN,2,2,1,776,75,hi,5
Stern,DMCC8760894,wave1,proactive,not5NN,2,2,1,1096,76,,2
Stern,DMCC8760894,wave1,proactive,not5NP,1,1,1,1601,77,,3
Stern,DMCC8760894,wave1,proactive,not5NP,1,1,1,972,78,,2
Stern,DMCC8760894,wave1,proactive,LL5NN,2,2,1,1543,79,lo,5
Stern,DMCC8760894,wave1,proactive,LL5NP,1,1,1,1009,80,,5
Stern,DMCC8760894,wave1,proactive,not5NP,1,,0,0,81,,2
Stern,DMCC8760894,wave1,proactive,not5NN,2,,0,0,82,,3
Stern,DMCC8760894,wave1,proactive,LL5NP,1,1,1,1093,83,,5
Stern,DMCC8760894,wave1,proactive,not5NN,2,2,1,1085,84,,3
Stern,DMCC8760894,wave1,proactive,LL5RN,2,,0,0,85,hi,5
Stern,DMCC8760894,wave1,proactive,LL5NP,1,1,1,731,86,,5
Stern,DMCC8760894,wave1,proactive,not5NP,1,1,1,731,87,,2
Stern,DMCC8760894,wave1,proactive,not5NP,1,1,1,758,88,,4
Stern,DMCC8760894,wave1,proactive,LL5NN,2,2,1,1097,89,lo,5
Stern,DMCC8760894,wave1,proactive,not5NN,2,2,1,1311,90,,4
Stern,DMCC8760894,wave1,reactive,not5NP,1,1,1,771,1,,8
Stern,DMCC8760894,wave1,reactive,LL5RN,2,2,1,1014,2,hi,5
Stern,DMCC8760894,wave1,reactive,LL5NP,1,1,1,1393,3,,5
Stern,DMCC8760894,wave1,reactive,LL5NP,1,1,1,748,4,,5
Stern,DMCC8760894,wave1,reactive,not5RN,2,2,1,1465,5,,7
Stern,DMCC8760894,wave1,reactive,not5NP,1,1,1,1377,6,,6
Stern,DMCC8760894,wave1,reactive,not5NP,1,1,1,788,7,,7
Stern,DMCC8760894,wave1,reactive,not5RN,2,2,1,1082,8,,8
Stern,DMCC8760894,wave1,reactive,LL5NP,1,1,1,848,9,,5
Stern,DMCC8760894,wave1,reactive,LL5RN,2,1,0,1310,10,hi,5
Stern,DMCC8760894,wave1,reactive,LL5NN,2,2,1,738,11,lo,5
Stern,DMCC8760894,wave1,reactive,not5NP,1,1,1,978,12,,7
Stern,DMCC8760894,wave1,reactive,not5RN,2,2,1,975,13,,8
Stern,DMCC8760894,wave1,reactive,not5NP,1,1,1,1223,14,,8
Stern,DMCC8760894,wave1,reactive,not5RN,2,1,0,1462,15,,6
Stern,DMCC8760894,wave1,reactive,LL5NP,1,1,1,926,16,,5
Stern,DMCC8760894,wave1,reactive,not5RN,2,2,1,1326,17,,7
Stern,DMCC8760894,wave1,reactive,not5RN,2,2,1,924,18,,8
Stern,DMCC8760894,wave1,reactive,not5NP,1,2,0,1021,19,,8
Stern,DMCC8760894,wave1,reactive,not5RN,2,2,1,1508,20,,6
Stern,DMCC8760894,wave1,reactive,LL5NN,2,,0,0,21,lo,5
Stern,DMCC8760894,wave1,reactive,LL5NP,1,1,1,1049,22,,5
Stern,DMCC8760894,wave1,reactive,not5RN,2,2,1,1142,23,,8
Stern,DMCC8760894,wave1,reactive,LL5RN,2,2,1,1076,24,hi,5
Stern,DMCC8760894,wave1,reactive,not5NP,1,2,0,908,25,,8
Stern,DMCC8760894,wave1,reactive,LL5RN,2,2,1,1713,26,hi,5
Stern,DMCC8760894,wave1,reactive,LL5NP,1,1,1,1358,27,,5
Stern,DMCC8760894,wave1,reactive,not5NP,1,2,0,1551,28,,7
Stern,DMCC8760894,wave1,reactive,not5NP,1,1,1,1270,29,,8
Stern,DMCC8760894,wave1,reactive,not5NP,1,2,0,1053,30,,7
Stern,DMCC8760894,wave1,reactive,LL5NP,1,1,1,921,31,,5
Stern,DMCC8760894,wave1,reactive,LL5RN,2,2,1,1115,32,hi,5
Stern,DMCC8760894,wave1,reactive,not5NN,2,2,1,1301,33,,8
Stern,DMCC8760894,wave1,reactive,not5RN,2,2,1,1379,34,,8
Stern,DMCC8760894,wave1,reactive,not5RN,2,,0,0,35,,7
Stern,DMCC8760894,wave1,reactive,not5RN,2,2,1,1314,36,,8
Stern,DMCC8760894,wave1,reactive,not5RN,2,2,1,998,37,,7
Stern,DMCC8760894,wave1,reactive,LL5NP,1,1,1,1126,38,,5
Stern,DMCC8760894,wave1,reactive,LL5RN,2,,0,0,39,hi,5
Stern,DMCC8760894,wave1,reactive,LL5NN,2,2,1,950,40,lo,5
Stern,DMCC8760894,wave1,reactive,not5NP,1,2,0,1057,41,,8
Stern,DMCC8760894,wave1,reactive,not5NP,1,,0,0,42,,7
Stern,DMCC8760894,wave1,reactive,LL5NP,1,1,1,858,43,,5
Stern,DMCC8760894,wave1,reactive,not5NP,1,1,1,863,44,,6
Stern,DMCC8760894,wave1,reactive,not5NP,1,1,1,1015,45,,8
Stern,DMCC8760894,wave1,reactive,LL5NN,2,2,1,1247,46,lo,5
Stern,DMCC8760894,wave1,reactive,not5NP,1,1,1,1032,47,,8
Stern,DMCC8760894,wave1,reactive,not5RN,2,2,1,1438,48,,8
Stern,DMCC8760894,wave1,reactive,not5RN,2,,0,0,49,,8
Stern,DMCC8760894,wave1,reactive,LL5RN,2,,0,0,50,hi,5
Stern,DMCC8760894,wave1,reactive,not5NN,2,2,1,1369,51,,7
Stern,DMCC8760894,wave1,reactive,not5NP,1,2,0,1539,52,,7
Stern,DMCC8760894,wave1,reactive,not5RN,2,2,1,800,53,,6
Stern,DMCC8760894,wave1,reactive,not5NP,1,1,1,1161,54,,6
Stern,DMCC8760894,wave1,reactive,LL5NP,1,1,1,950,55,,5
Stern,DMCC8760894,wave1,reactive,LL5RN,2,2,1,1906,56,hi,5
Stern,DMCC8760894,wave1,reactive,not5NP,1,2,0,1214,57,,8
Stern,DMCC8760894,wave1,reactive,LL5NP,1,,0,0,58,,5
Stern,DMCC8760894,wave1,reactive,LL5NP,1,1,1,949,59,,5
Stern,DMCC8760894,wave1,reactive,not5RN,2,,0,0,60,,7
Stern,DMCC8760894,wave1,reactive,not5NN,2,2,1,1277,61,,8
Stern,DMCC8760894,wave1,reactive,not5NP,1,1,1,1749,62,,7
Stern,DMCC8760894,wave1,reactive,not5RN,2,,0,0,63,,8
Stern,DMCC8760894,wave1,reactive,LL5NP,1,1,1,1314,64,,5
Stern,DMCC8760894,wave1,reactive,LL5NP,1,1,1,1319,65,,5
Stern,DMCC8760894,wave1,reactive,LL5NP,1,1,1,1880,66,,5
Stern,DMCC8760894,wave1,reactive,not5NP,1,2,0,1079,67,,8
