task,subj,wave,session,trialtype,cresp,resp,acc,rt,trialnum,hilo,hilo_all
Axcpt,DMCC8033964,wave2,baseline,AX,2,2,1,704,1,,lo
Axcpt,DMCC8033964,wave2,baseline,Ang,,,1,0,2,,
Axcpt,DMCC8033964,wave2,baseline,BX,1,1,1,736,3,hi,hi
Axcpt,DMCC8033964,wave2,baseline,BY,1,1,1,774,4,lo,lo
Axcpt,DMCC8033964,wave2,baseline,BY,1,1,1,639,5,lo,lo
Axcpt,DMCC8033964,wave2,baseline,BY,1,1,1,651,6,lo,lo
Axcpt,DMCC8033964,wave2,baseline,BY,1,1,1,717,7,lo,lo
Axcpt,DMCC8033964,wave2,baseline,Bng,,,1,0,8,,
Axcpt,DMCC8033964,wave2,baseline,Bng,,,1,0,9,,
Axcpt,DMCC8033964,wave2,baseline,AY,1,1,1,696,10,,hi
Axcpt,DMCC8033964,wave2,baseline,AX,2,2,1,699,11,,lo
Axcpt,DMCC8033964,wave2,baseline,AY,1,1,1,672,12,,hi
Axcpt,DMCC8033964,wave2,baseline,AX,2,2,1,584,13,,lo
Axcpt,DMCC8033964,wave2,baseline,AX,2,2,1,621,14,,lo
Axcpt,DMCC8033964,wave2,baseline,BY,1,1,1,583,15,lo,lo
Axcpt,DMCC8033964,wave2,baseline,BY,1,1,1,546,16,lo,lo
Axcpt,DMCC8033964,wave2,baseline,Ang,,,1,0,17,,
Axcpt,DMCC8033964,wave2,baseline,BY,1,1,1,525,18,lo,lo
Axcpt,DMCC8033964,wave2,baseline,BY,1,1,1,540,19,lo,lo
Axcpt,DMCC8033964,wave2,baseline,AX,2,2,1,498,20,,lo
Axcpt,DMCC8033964,wave2,baseline,AX,2,2,1,472,21,,lo
Axcpt,DMCC8033964,wave2,baseline,BX,1,1,1,575,22,hi,hi
Axcpt,DMCC8033964,wave2,baseline,AX,2,2,1,558,23,,lo
Axcpt,DMCC8033964,wave2,baseline,AX,2,2,1,504,24,,lo
Axcpt,DMCC8033964,wave2,baseline,BY,1,1,1,642,25,lo,lo
Axcpt,DMCC8033964,wave2,baseline,BY,1,1,1,588,26,lo,lo
Axcpt,DMCC8033964,wave2,baseline,AX,2,2,1,608,27,,lo
Axcpt,DMCC8033964,wave2,baseline,BX,1,1,1,779,28,hi,hi
Axcpt,DMCC8033964,wave2,baseline,BX,1,1,1,589,29,hi,hi
Axcpt,DMCC8033964,wave2,baseline,BY,1,1,1,489,30,lo,lo
Axcpt,DMCC8033964,wave2,baseline,AX,2,2,1,447,31,,lo
Axcpt,DMCC8033964,wave2,baseline,BY,1,1,1,993,32,lo,lo
Axcpt,DMCC8033964,wave2,baseline,BY,1,1,1,616,33,lo,lo
Axcpt,DMCC8033964,wave2,baseline,AX,2,2,1,506,34,,lo
Axcpt,DMCC8033964,wave2,baseline,AX,2,2,1,474,35,,lo
Axcpt,DMCC8033964,wave2,baseline,Ang,,,1,0,36,,
Axcpt,DMCC8033964,wave2,baseline,Bng,,,1,0,37,,
Axcpt,DMCC8033964,wave2,baseline,BY,1,1,1,681,38,lo,lo
Axcpt,DMCC8033964,wave2,baseline,AX,2,2,1,530,39,,lo
Axcpt,DMCC8033964,wave2,baseline,BY,1,1,1,507,40,lo,lo
Axcpt,DMCC8033964,wave2,baseline,Bng,,,1,0,41,,
Axcpt,DMCC8033964,wave2,baseline,BY,1,1,1,697,42,lo,lo
Axcpt,DMCC8033964,wave2,baseline,AX,2,2,1,536,43,,lo
Axcpt,DMCC8033964,wave2,baseline,AX,2,2,1,488,44,,lo
Axcpt,DMCC8033964,wave2,baseline,AY,1,2,0,766,45,,hi
Axcpt,DMCC8033964,wave2,baseline,Ang,,,1,0,46,,
Axcpt,DMCC8033964,wave2,baseline,AY,1,1,1,580,47,,hi
Axcpt,DMCC8033964,wave2,baseline,AX,2,2,1,516,48,,lo
Axcpt,DMCC8033964,wave2,baseline,AX,2,2,1,527,49,,lo
Axcpt,DMCC8033964,wave2,baseline,AY,1,1,1,607,50,,hi
Axcpt,DMCC8033964,wave2,baseline,BY,1,1,1,515,51,lo,lo
Axcpt,DMCC8033964,wave2,baseline,BY,1,1,1,707,52,lo,lo
Axcpt,DMCC8033964,wave2,baseline,AX,2,2,1,436,53,,lo
Axcpt,DMCC8033964,wave2,baseline,Ang,,,1,0,54,,
Axcpt,DMCC8033964,wave2,baseline,AX,2,2,1,465,55,,lo
Axcpt,DMCC8033964,wave2,baseline,BY,1,1,1,590,56,lo,lo
Axcpt,DMCC8033964,wave2,baseline,BY,1,1,1,582,57,lo,lo
Axcpt,DMCC8033964,wave2,baseline,AY,1,1,1,678,58,,hi
Axcpt,DMCC8033964,wave2,baseline,AX,2,2,1,513,59,,lo
Axcpt,DMCC8033964,wave2,baseline,BY,1,1,1,699,60,lo,lo
Axcpt,DMCC8033964,wave2,baseline,BX,1,1,1,777,61,hi,hi
Axcpt,DMCC8033964,wave2,baseline,BY,1,1,1,609,62,lo,lo
Axcpt,DMCC8033964,wave2,baseline,AX,2,2,1,456,63,,lo
Axcpt,DMCC8033964,wave2,baseline,AX,2,2,1,547,64,,lo
Axcpt,DMCC8033964,wave2,baseline,BY,1,1,1,579,65,lo,lo
Axcpt,DMCC8033964,wave2,baseline,AX,2,2,1,551,66,,lo
Axcpt,DMCC8033964,wave2,baseline,AX,2,2,1,555,67,,lo
Axcpt,DMCC8033964,wave2,baseline,BY,1,1,1,645,68,lo,lo
Axcpt,DMCC8033964,wave2,baseline,BX,1,1,1,629,69,hi,hi
Axcpt,DMCC8033964,wave2,baseline,Ang,,,1,0,70,,
Axcpt,DMCC8033964,wave2,baseline,Bng,,,1,0,71,,
Axcpt,DMCC8033964,wave2,baseline,Bng,,,1,0,72,,
Axcpt,DMCC8033964,wave2,baseline,AX,2,2,1,437,73,,lo
Axcpt,DMCC8033964,wave2,baseline,AX,2,2,1,491,74,,lo
Axcpt,DMCC8033964,wave2,baseline,AY,1,1,1,566,75,,hi
Axcpt,DMCC8033964,wave2,baseline,AX,2,2,1,534,76,,lo
Axcpt,DMCC8033964,wave2,baseline,BY,1,1,1,586,77,lo,lo
Axcpt,DMCC8033964,wave2,baseline,BX,1,1,1,563,78,hi,hi
Axcpt,DMCC8033964,wave2,baseline,AY,1,1,1,568,79,,hi
Axcpt,DMCC8033964,wave2,baseline,Bng,,,1,0,80,,
Axcpt,DMCC8033964,wave2,baseline,AX,2,2,1,547,81,,lo
Axcpt,DMCC8033964,wave2,baseline,Bng,,,1,0,82,,
Axcpt,DMCC8033964,wave2,baseline,BY,1,1,1,599,83,lo,lo
Axcpt,DMCC8033964,wave2,baseline,BY,1,1,1,598,84,lo,lo
Axcpt,DMCC8033964,wave2,baseline,BY,1,1,1,588,85,lo,lo
Axcpt,DMCC8033964,wave2,baseline,AX,2,2,1,644,86,,lo
Axcpt,DMCC8033964,wave2,baseline,AX,2,2,1,461,87,,lo
Axcpt,DMCC8033964,wave2,baseline,BY,1,1,1,489,88,lo,lo
Axcpt,DMCC8033964,wave2,baseline,BY,1,1,1,476,89,lo,lo
Axcpt,DMCC8033964,wave2,baseline,BX,1,1,1,391,90,hi,hi
Axcpt,DMCC8033964,wave2,baseline,BY,1,1,1,582,91,lo,lo
Axcpt,DMCC8033964,wave2,baseline,AX,2,2,1,453,92,,lo
Axcpt,DMCC8033964,wave2,baseline,BY,1,1,1,606,93,lo,lo
Axcpt,DMCC8033964,wave2,baseline,AX,2,2,1,426,94,,lo
Axcpt,DMCC8033964,wave2,baseline,Ang,,,1,0,95,,
Axcpt,DMCC8033964,wave2,baseline,Ang,,,1,0,96,,
Axcpt,DMCC8033964,wave2,baseline,AX,2,2,1,435,97,,lo
Axcpt,DMCC8033964,wave2,baseline,BX,1,1,1,644,98,hi,hi
Axcpt,DMCC8033964,wave2,baseline,BY,1,1,1,663,99,lo,lo
Axcpt,DMCC8033964,wave2,baseline,AX,2,2,1,440,100,,lo
Axcpt,DMCC8033964,wave2,baseline,Bng,,,1,0,101,,
Axcpt,DMCC8033964,wave2,baseline,AX,2,2,1,485,102,,lo
Axcpt,DMCC8033964,wave2,baseline,AX,2,2,1,544,103,,lo
Axcpt,DMCC8033964,wave2,baseline,AX,2,2,1,481,104,,lo
Axcpt,DMCC8033964,wave2,baseline,AY,1,1,1,670,105,,hi
Axcpt,DMCC8033964,wave2,baseline,AY,1,1,1,576,106,,hi
Axcpt,DMCC8033964,wave2,baseline,Ang,,,1,0,107,,
Axcpt,DMCC8033964,wave2,baseline,BX,1,1,1,768,108,hi,hi
Axcpt,DMCC8033964,wave2,baseline,AX,2,2,1,604,109,,lo
Axcpt,DMCC8033964,wave2,baseline,Ang,,,1,0,110,,
Axcpt,DMCC8033964,wave2,baseline,BY,1,1,1,651,111,lo,lo
Axcpt,DMCC8033964,wave2,baseline,AX,2,2,1,479,112,,lo
Axcpt,DMCC8033964,wave2,baseline,BY,1,1,1,632,113,lo,lo
Axcpt,DMCC8033964,wave2,baseline,Bng,,,1,0,114,,
Axcpt,DMCC8033964,wave2,baseline,BY,1,1,1,626,115,lo,lo
Axcpt,DMCC8033964,wave2,baseline,BY,1,1,1,849,116,lo,lo
Axcpt,DMCC8033964,wave2,baseline,BY,1,1,1,568,117,lo,lo
Axcpt,DMCC8033964,wave2,baseline,BY,1,1,1,322,118,lo,lo
Axcpt,DMCC8033964,wave2,baseline,AX,2,2,1,365,119,,lo
Axcpt,DMCC8033964,wave2,baseline,BY,1,1,1,369,120,lo,lo
Axcpt,DMCC8033964,wave2,baseline,Ang,,,1,0,121,,
Axcpt,DMCC8033964,wave2,baseline,BY,1,1,1,488,122,lo,lo
Axcpt,DMCC8033964,wave2,baseline,BY,1,1,1,494,123,lo,lo
Axcpt,DMCC8033964,wave2,baseline,AX,2,2,1,365,124,,lo
Axcpt,DMCC8033964,wave2,baseline,Ang,,,1,0,125,,
Axcpt,DMCC8033964,wave2,baseline,BX,1,1,1,559,126,hi,hi
Axcpt,DMCC8033964,wave2,baseline,BY,1,1,1,461,127,lo,lo
Axcpt,DMCC8033964,wave2,baseline,BY,1,1,1,390,128,lo,lo
Axcpt,DMCC8033964,wave2,baseline,AX,2,2,1,378,129,,lo
Axcpt,DMCC8033964,wave2,baseline,BX,1,1,1,480,130,hi,hi
Axcpt,DMCC8033964,wave2,baseline,Bng,,,1,0,131,,
Axcpt,DMCC8033964,wave2,baseline,AX,2,2,1,517,132,,lo
Axcpt,DMCC8033964,wave2,baseline,BY,1,1,1,533,133,lo,lo
Axcpt,DMCC8033964,wave2,baseline,BY,1,1,1,575,134,lo,lo
Axcpt,DMCC8033964,wave2,baseline,AX,2,2,1,448,135,,lo
Axcpt,DMCC8033964,wave2,baseline,Bng,,,1,0,136,,
Axcpt,DMCC8033964,wave2,baseline,AY,1,1,1,767,137,,hi
Axcpt,DMCC8033964,wave2,baseline,AY,1,1,1,612,138,,hi
Axcpt,DMCC8033964,wave2,baseline,BY,1,1,1,562,139,lo,lo
Axcpt,DMCC8033964,wave2,baseline,AX,2,2,1,490,140,,lo
Axcpt,DMCC8033964,wave2,baseline,AX,2,2,1,469,141,,lo
Axcpt,DMCC8033964,wave2,baseline,AX,2,2,1,472,142,,lo
Axcpt,DMCC8033964,wave2,baseline,AX,2,2,1,372,143,,lo
Axcpt,DMCC8033964,wave2,baseline,BY,1,1,1,523,144,lo,lo
Axcpt,DMCC8033964,wave2,proactive,BY,1,1,1,395,1,lo,lo
Axcpt,DMCC8033964,wave2,proactive,BY,1,1,1,294,2,lo,lo
Axcpt,DMCC8033964,wave2,proactive,AX,2,2,1,194,3,,lo
Axcpt,DMCC8033964,wave2,proactive,AY,1,1,1,440,4,,hi
Axcpt,DMCC8033964,wave2,proactive,AX,2,2,1,245,5,,lo
Axcpt,DMCC8033964,wave2,proactive,AX,2,2,1,227,6,,lo
Axcpt,DMCC8033964,wave2,proactive,BY,1,1,1,285,7,lo,lo
Axcpt,DMCC8033964,wave2,proactive,Ang,,1,0,368,8,,
Axcpt,DMCC8033964,wave2,proactive,BY,1,1,1,290,9,lo,lo
Axcpt,DMCC8033964,wave2,proactive,BY,1,1,1,260,10,lo,lo
Axcpt,DMCC8033964,wave2,proactive,BY,1,1,1,294,11,lo,lo
Axcpt,DMCC8033964,wave2,proactive,AY,1,1,1,463,12,,hi
Axcpt,DMCC8033964,wave2,proactive,Bng,,1,0,246,13,,
Axcpt,DMCC8033964,wave2,proactive,AX,2,2,1,316,14,,lo
Axcpt,DMCC8033964,wave2,proactive,AX,2,1,0,310,15,,lo
Axcpt,DMCC8033964,wave2,proactive,BX,1,1,1,293,16,hi,hi
Axcpt,DMCC8033964,wave2,proactive,BX,1,1,1,340,17,hi,hi
Axcpt,DMCC8033964,wave2,proactive,BY,1,1,1,313,18,lo,lo
Axcpt,DMCC8033964,wave2,proactive,AX,2,2,1,316,19,,lo
Axcpt,DMCC8033964,wave2,proactive,Ang,,,1,0,20,,
Axcpt,DMCC8033964,wave2,proactive,AX,2,2,1,287,21,,lo
Axcpt,DMCC8033964,wave2,proactive,AX,2,2,1,315,22,,lo
Axcpt,DMCC8033964,wave2,proactive,Bng,,1,0,290,23,,
Axcpt,DMCC8033964,wave2,proactive,BY,1,1,1,311,24,lo,lo
Axcpt,DMCC8033964,wave2,proactive,AX,2,2,1,300,25,,lo
Axcpt,DMCC8033964,wave2,proactive,BY,1,1,1,448,26,lo,lo
Axcpt,DMCC8033964,wave2,proactive,AX,2,2,1,318,27,,lo
Axcpt,DMCC8033964,wave2,proactive,BY,1,1,1,346,28,lo,lo
Axcpt,DMCC8033964,wave2,proactive,AY,1,2,0,244,29,,hi
Axcpt,DMCC8033964,wave2,proactive,Bng,,,1,0,30,,
Axcpt,DMCC8033964,wave2,proactive,BY,1,1,1,315,31,lo,lo
Axcpt,DMCC8033964,wave2,proactive,AX,2,2,1,322,32,,lo
Axcpt,DMCC8033964,wave2,proactive,AX,2,2,1,254,33,,lo
Axcpt,DMCC8033964,wave2,proactive,BY,1,1,1,303,34,lo,lo
Axcpt,DMCC8033964,wave2,proactive,Ang,,,1,0,35,,
Axcpt,DMCC8033964,wave2,proactive,BY,1,1,1,340,36,lo,lo
Axcpt,DMCC8033964,wave2,proactive,Bng,,,1,0,37,,
Axcpt,DMCC8033964,wave2,proactive,BX,1,1,1,340,38,hi,hi
Axcpt,DMCC8033964,wave2,proactive,AX,2,2,1,324,39,,lo
Axcpt,DMCC8033964,wave2,proactive,BY,1,1,1,319,40,lo,lo
Axcpt,DMCC8033964,wave2,proactive,BY,1,1,1,356,41,lo,lo
Axcpt,DMCC8033964,wave2,proactive,AX,2,2,1,304,42,,lo
Axcpt,DMCC8033964,wave2,proactive,Ang,,,1,0,43,,
Axcpt,DMCC8033964,wave2,proactive,BY,1,1,1,387,44,lo,lo
Axcpt,DMCC8033964,wave2,proactive,AX,2,2,1,343,45,,lo
Axcpt,DMCC8033964,wave2,proactive,BX,1,1,1,324,46,hi,hi
Axcpt,DMCC8033964,wave2,proactive,AY,1,1,1,435,47,,hi
Axcpt,DMCC8033964,wave2,proactive,AX,2,2,1,248,48,,lo
Axcpt,DMCC8033964,wave2,proactive,AX,2,2,1,264,49,,lo
Axcpt,DMCC8033964,wave2,proactive,AX,2,2,1,319,50,,lo
Axcpt,DMCC8033964,wave2,proactive,BY,1,1,1,324,51,lo,lo
Axcpt,DMCC8033964,wave2,proactive,Bng,,,1,0,52,,
Axcpt,DMCC8033964,wave2,proactive,BY,1,1,1,330,53,lo,lo
Axcpt,DMCC8033964,wave2,proactive,BX,1,1,1,336,54,hi,hi
Axcpt,DMCC8033964,wave2,proactive,Ang,,,1,0,55,,
Axcpt,DMCC8033964,wave2,proactive,AY,1,1,1,466,56,,hi
Axcpt,DMCC8033964,wave2,proactive,BX,1,1,1,323,57,hi,hi
Axcpt,DMCC8033964,wave2,proactive,Bng,,,1,0,58,,
Axcpt,DMCC8033964,wave2,proactive,AY,1,1,1,414,59,,hi
Axcpt,DMCC8033964,wave2,proactive,Ang,,,1,0,60,,
Axcpt,DMCC8033964,wave2,proactive,AX,2,2,1,317,61,,lo
Axcpt,DMCC8033964,wave2,proactive,BY,1,1,1,390,62,lo,lo
Axcpt,DMCC8033964,wave2,proactive,BY,1,1,1,342,63,lo,lo
Axcpt,DMCC8033964,wave2,proactive,AX,2,2,1,250,64,,lo
Axcpt,DMCC8033964,wave2,proactive,AX,2,2,1,266,65,,lo
Axcpt,DMCC8033964,wave2,proactive,AX,2,2,1,281,66,,lo
Axcpt,DMCC8033964,wave2,proactive,BY,1,1,1,330,67,lo,lo
Axcpt,DMCC8033964,wave2,proactive,AX,2,2,1,196,68,,lo
Axcpt,DMCC8033964,wave2,proactive,AX,2,2,1,269,69,,lo
Axcpt,DMCC8033964,wave2,proactive,BY,1,1,1,301,70,lo,lo
Axcpt,DMCC8033964,wave2,proactive,BY,1,1,1,312,71,lo,lo
Axcpt,DMCC8033964,wave2,proactive,BY,1,1,1,394,72,lo,lo
Axcpt,DMCC8033964,wave2,proactive,BY,1,1,1,373,73,lo,lo
Axcpt,DMCC8033964,wave2,proactive,AX,2,2,1,265,74,,lo
Axcpt,DMCC8033964,wave2,proactive,AX,2,2,1,278,75,,lo
Axcpt,DMCC8033964,wave2,proactive,AX,2,2,1,336,76,,lo
Axcpt,DMCC8033964,wave2,proactive,Bng,,1,0,360,77,,
Axcpt,DMCC8033964,wave2,proactive,Ang,,,1,0,78,,
Axcpt,DMCC8033964,wave2,proactive,AY,1,2,0,353,79,,hi
Axcpt,DMCC8033964,wave2,proactive,Bng,,,1,0,80,,
Axcpt,DMCC8033964,wave2,proactive,BY,1,1,1,401,81,lo,lo
Axcpt,DMCC8033964,wave2,proactive,Ang,,,1,0,82,,
Axcpt,DMCC8033964,wave2,proactive,BY,1,1,1,421,83,lo,lo
Axcpt,DMCC8033964,wave2,proactive,BY,1,1,1,344,84,lo,lo
Axcpt,DMCC8033964,wave2,proactive,BY,1,1,1,360,85,lo,lo
Axcpt,DMCC8033964,wave2,proactive,AX,2,2,1,450,86,,lo
Axcpt,DMCC8033964,wave2,proactive,AY,1,1,1,723,87,,hi
Axcpt,DMCC8033964,wave2,proactive,AX,2,2,1,267,88,,lo
Axcpt,DMCC8033964,wave2,proactive,AX,2,2,1,283,89,,lo
Axcpt,DMCC8033964,wave2,proactive,AX,2,2,1,316,90,,lo
Axcpt,DMCC8033964,wave2,proactive,BY,1,1,1,329,91,lo,lo
Axcpt,DMCC8033964,wave2,proactive,BY,1,1,1,338,92,lo,lo
Axcpt,DMCC8033964,wave2,proactive,BX,1,1,1,290,93,hi,hi
Axcpt,DMCC8033964,wave2,proactive,BX,1,1,1,386,94,hi,hi
Axcpt,DMCC8033964,wave2,proactive,BY,1,1,1,323,95,lo,lo
Axcpt,DMCC8033964,wave2,proactive,AX,2,2,1,309,96,,lo
Axcpt,DMCC8033964,wave2,proactive,BY,1,1,1,340,97,lo,lo
Axcpt,DMCC8033964,wave2,proactive,Ang,,1,0,425,98,,
Axcpt,DMCC8033964,wave2,proactive,AX,2,2,1,306,99,,lo
Axcpt,DMCC8033964,wave2,proactive,AX,2,2,1,505,100,,lo
Axcpt,DMCC8033964,wave2,proactive,BY,1,1,1,272,101,lo,lo
Axcpt,DMCC8033964,wave2,proactive,BX,1,1,1,314,102,hi,hi
Axcpt,DMCC8033964,wave2,proactive,AX,2,2,1,286,103,,lo
Axcpt,DMCC8033964,wave2,proactive,BX,1,1,1,303,104,hi,hi
Axcpt,DMCC8033964,wave2,proactive,AX,2,2,1,292,105,,lo
Axcpt,DMCC8033964,wave2,proactive,BY,1,1,1,308,106,lo,lo
Axcpt,DMCC8033964,wave2,proactive,BY,1,1,1,291,107,lo,lo
Axcpt,DMCC8033964,wave2,proactive,Bng,,1,0,380,108,,
Axcpt,DMCC8033964,wave2,proactive,BY,1,1,1,380,109,lo,lo
Axcpt,DMCC8033964,wave2,proactive,AX,2,2,1,332,110,,lo
Axcpt,DMCC8033964,wave2,proactive,Bng,,,1,0,111,,
Axcpt,DMCC8033964,wave2,proactive,BY,1,1,1,356,112,lo,lo
Axcpt,DMCC8033964,wave2,proactive,BY,1,1,1,427,113,lo,lo
Axcpt,DMCC8033964,wave2,proactive,AY,1,1,1,462,114,,hi
Axcpt,DMCC8033964,wave2,proactive,AX,2,2,1,278,115,,lo
Axcpt,DMCC8033964,wave2,proactive,BY,1,1,1,337,116,lo,lo
Axcpt,DMCC8033964,wave2,proactive,Ang,,,1,0,117,,
Axcpt,DMCC8033964,wave2,proactive,AX,2,2,1,310,118,,lo
Axcpt,DMCC8033964,wave2,proactive,AX,2,2,1,284,119,,lo
Axcpt,DMCC8033964,wave2,proactive,AY,1,1,1,369,120,,hi
Axcpt,DMCC8033964,wave2,proactive,AY,1,1,1,376,121,,hi
Axcpt,DMCC8033964,wave2,proactive,BX,1,1,1,353,122,hi,hi
Axcpt,DMCC8033964,wave2,proactive,BX,1,1,1,329,123,hi,hi
Axcpt,DMCC8033964,wave2,proactive,AX,2,2,1,299,124,,lo
Axcpt,DMCC8033964,wave2,proactive,Ang,,,1,0,125,,
Axcpt,DMCC8033964,wave2,proactive,BY,1,1,1,438,126,lo,lo
Axcpt,DMCC8033964,wave2,proactive,AX,2,2,1,270,127,,lo
Axcpt,DMCC8033964,wave2,proactive,Ang,,,1,0,128,,
Axcpt,DMCC8033964,wave2,proactive,Bng,,,1,0,129,,
Axcpt,DMCC8033964,wave2,proactive,Bng,,1,0,318,130,,
Axcpt,DMCC8033964,wave2,proactive,BY,1,1,1,355,131,lo,lo
Axcpt,DMCC8033964,wave2,proactive,AY,1,1,1,540,132,,hi
Axcpt,DMCC8033964,wave2,proactive,AX,2,2,1,274,133,,lo
Axcpt,DMCC8033964,wave2,proactive,BY,1,1,1,307,134,lo,lo
Axcpt,DMCC8033964,wave2,proactive,BY,1,1,1,336,135,lo,lo
Axcpt,DMCC8033964,wave2,proactive,BY,1,1,1,345,136,lo,lo
Axcpt,DMCC8033964,wave2,proactive,AX,2,2,1,384,137,,lo
Axcpt,DMCC8033964,wave2,proactive,BY,1,1,1,337,138,lo,lo
Axcpt,DMCC8033964,wave2,proactive,AX,2,2,1,324,139,,lo
Axcpt,DMCC8033964,wave2,proactive,AX,2,2,1,324,140,,lo
Axcpt,DMCC8033964,wave2,proactive,AX,2,2,1,276,141,,lo
Axcpt,DMCC8033964,wave2,proactive,BY,1,1,1,330,142,lo,lo
Axcpt,DMCC8033964,wave2,proactive,BY,1,1,1,336,143,lo,lo
Axcpt,DMCC8033964,wave2,proactive,AX,2,2,1,294,144,,lo
Axcpt,DMCC8033964,wave2,reactive,Bng,,,1,0,1,,
Axcpt,DMCC8033964,wave2,reactive,BY,1,1,1,610,2,lo,lo
Axcpt,DMCC8033964,wave2,reactive,AY,1,1,1,538,3,,hi
Axcpt,DMCC8033964,wave2,reactive,AX,2,2,1,365,4,,lo
Axcpt,DMCC8033964,wave2,reactive,AX,2,2,1,270,5,,lo
Axcpt,DMCC8033964,wave2,reactive,AX,2,2,1,227,6,,lo
Axcpt,DMCC8033964,wave2,reactive,AX,2,2,1,215,7,,lo
Axcpt,DMCC8033964,wave2,reactive,AX,2,2,1,291,8,,lo
Axcpt,DMCC8033964,wave2,reactive,Ang,,,1,0,9,,
Axcpt,DMCC8033964,wave2,reactive,AX,2,2,1,134,10,,lo
Axcpt,DMCC8033964,wave2,reactive,BY,1,1,1,354,11,lo,lo
Axcpt,DMCC8033964,wave2,reactive,AX,2,2,1,219,12,,lo
Axcpt,DMCC8033964,wave2,reactive,BX,1,1,1,323,13,hi,hi
Axcpt,DMCC8033964,wave2,reactive,BY,1,1,1,524,14,lo,lo
Axcpt,DMCC8033964,wave2,reactive,BY,1,1,1,255,15,lo,lo
Axcpt,DMCC8033964,wave2,reactive,Bng,,1,0,233,16,,
Axcpt,DMCC8033964,wave2,reactive,BY,1,1,1,486,17,lo,lo
Axcpt,DMCC8033964,wave2,reactive,BX,1,1,1,334,18,hi,hi
Axcpt,DMCC8033964,wave2,reactive,BY,1,1,1,242,19,lo,lo
Axcpt,DMCC8033964,wave2,reactive,AX,2,2,1,229,20,,lo
Axcpt,DMCC8033964,wave2,reactive,BY,1,1,1,258,21,lo,lo
Axcpt,DMCC8033964,wave2,reactive,Ang,,,1,0,22,,
Axcpt,DMCC8033964,wave2,reactive,AY,1,2,0,385,23,,hi
Axcpt,DMCC8033964,wave2,reactive,BY,1,1,1,421,24,lo,lo
Axcpt,DMCC8033964,wave2,reactive,Bng,,1,0,362,25,,
Axcpt,DMCC8033964,wave2,reactive,AX,2,2,1,327,26,,lo
Axcpt,DMCC8033964,wave2,reactive,AX,2,2,1,352,27,,lo
Axcpt,DMCC8033964,wave2,reactive,BY,1,1,1,351,28,lo,lo
Axcpt,DMCC8033964,wave2,reactive,BY,1,1,1,330,29,lo,lo
Axcpt,DMCC8033964,wave2,reactive,BY,1,1,1,446,30,lo,lo
Axcpt,DMCC8033964,wave2,reactive,AX,2,2,1,268,31,,lo
Axcpt,DMCC8033964,wave2,reactive,AX,2,2,1,269,32,,lo
Axcpt,DMCC8033964,wave2,reactive,BY,1,1,1,329,33,lo,lo
Axcpt,DMCC8033964,wave2,reactive,AX,2,2,1,275,34,,lo
Axcpt,DMCC8033964,wave2,reactive,BY,1,1,1,304,35,lo,lo
Axcpt,DMCC8033964,wave2,reactive,BY,1,1,1,347,36,lo,lo
Axcpt,DMCC8033964,wave2,reactive,BX,1,1,1,487,37,hi,hi
Axcpt,DMCC8033964,wave2,reactive,Bng,,1,0,328,38,,
Axcpt,DMCC8033964,wave2,reactive,AX,2,2,1,306,39,,lo
Axcpt,DMCC8033964,wave2,reactive,BX,1,1,1,340,40,hi,hi
Axcpt,DMCC8033964,wave2,reactive,AY,1,1,1,426,41,,hi
Axcpt,DMCC8033964,wave2,reactive,Ang,,,1,0,42,,
Axcpt,DMCC8033964,wave2,reactive,AY,1,1,1,461,43,,hi
Axcpt,DMCC8033964,wave2,reactive,Ang,,,1,0,44,,
Axcpt,DMCC8033964,wave2,reactive,AX,2,2,1,345,45,,lo
Axcpt,DMCC8033964,wave2,reactive,BY,1,1,1,370,46,lo,lo
Axcpt,DMCC8033964,wave2,reactive,BY,1,1,1,397,47,lo,lo
Axcpt,DMCC8033964,wave2,reactive,AX,2,2,1,334,48,,lo
Axcpt,DMCC8033964,wave2,reactive,BX,1,1,1,454,49,hi,hi
Axcpt,DMCC8033964,wave2,reactive,Ang,,,1,0,50,,
Axcpt,DMCC8033964,wave2,reactive,AX,2,2,1,272,51,,lo
Axcpt,DMCC8033964,wave2,reactive,BX,1,1,1,380,52,hi,hi
Axcpt,DMCC8033964,wave2,reactive,AY,1,1,1,294,53,,hi
Axcpt,DMCC8033964,wave2,reactive,AX,2,2,1,248,54,,lo
Axcpt,DMCC8033964,wave2,reactive,AX,2,2,1,243,55,,lo
Axcpt,DMCC8033964,wave2,reactive,BY,1,1,1,322,56,lo,lo
Axcpt,DMCC8033964,wave2,reactive,Bng,,,1,0,57,,
Axcpt,DMCC8033964,wave2,reactive,AX,2,2,1,337,58,,lo
Axcpt,DMCC8033964,wave2,reactive,BY,1,1,1,333,59,lo,lo
Axcpt,DMCC8033964,wave2,reactive,BY,1,1,1,369,60,lo,lo
Axcpt,DMCC8033964,wave2,reactive,AX,2,2,1,346,61,,lo
Axcpt,DMCC8033964,wave2,reactive,BY,1,1,1,383,62,lo,lo
Axcpt,DMCC8033964,wave2,reactive,AX,2,2,1,365,63,,lo
Axcpt,DMCC8033964,wave2,reactive,AX,2,2,1,314,64,,lo
Axcpt,DMCC8033964,wave2,reactive,BY,1,1,1,343,65,lo,lo
Axcpt,DMCC8033964,wave2,reactive,BY,1,1,1,304,66,lo,lo
Axcpt,DMCC8033964,wave2,reactive,BY,1,1,1,537,67,lo,lo
Axcpt,DMCC8033964,wave2,reactive,AY,1,1,1,359,68,,hi
Axcpt,DMCC8033964,wave2,reactive,AX,2,2,1,262,69,,lo
Axcpt,DMCC8033964,wave2,reactive,Bng,,1,0,305,70,,
Axcpt,DMCC8033964,wave2,reactive,Ang,,,1,0,71,,
Axcpt,DMCC8033964,wave2,reactive,BY,1,1,1,355,72,lo,lo
Axcpt,DMCC8033964,wave2,reactive,BY,1,1,1,374,73,lo,lo
Axcpt,DMCC8033964,wave2,reactive,AX,2,2,1,281,74,,lo
Axcpt,DMCC8033964,wave2,reactive,BY,1,1,1,283,75,lo,lo
Axcpt,DMCC8033964,wave2,reactive,BX,1,1,1,356,76,hi,hi
Axcpt,DMCC8033964,wave2,reactive,Bng,,1,0,332,77,,
Axcpt,DMCC8033964,wave2,reactive,Ang,,,1,0,78,,
Axcpt,DMCC8033964,wave2,reactive,BY,1,1,1,452,79,lo,lo
Axcpt,DMCC8033964,wave2,reactive,AY,1,1,1,462,80,,hi
Axcpt,DMCC8033964,wave2,reactive,AX,2,2,1,262,81,,lo
Axcpt,DMCC8033964,wave2,reactive,Ang,,,1,0,82,,
Axcpt,DMCC8033964,wave2,reactive,AX,2,2,1,270,83,,lo
Axcpt,DMCC8033964,wave2,reactive,AX,2,2,1,254,84,,lo
Axcpt,DMCC8033964,wave2,reactive,AY,1,1,1,362,85,,hi
Axcpt,DMCC8033964,wave2,reactive,Bng,,,1,0,86,,
Axcpt,DMCC8033964,wave2,reactive,BY,1,1,1,336,87,lo,lo
Axcpt,DMCC8033964,wave2,reactive,BX,1,1,1,459,88,hi,hi
Axcpt,DMCC8033964,wave2,reactive,BY,1,1,1,326,89,lo,lo
Axcpt,DMCC8033964,wave2,reactive,BY,1,1,1,305,90,lo,lo
Axcpt,DMCC8033964,wave2,reactive,AX,2,2,1,278,91,,lo
Axcpt,DMCC8033964,wave2,reactive,BY,1,1,1,254,92,lo,lo
Axcpt,DMCC8033964,wave2,reactive,AX,2,2,1,313,93,,lo
Axcpt,DMCC8033964,wave2,reactive,AX,2,2,1,264,94,,lo
Axcpt,DMCC8033964,wave2,reactive,AX,2,2,1,334,95,,lo
Axcpt,DMCC8033964,wave2,reactive,BY,1,1,1,347,96,lo,lo
Axcpt,DMCC8033964,wave2,reactive,BX,1,1,1,479,97,hi,hi
Axcpt,DMCC8033964,wave2,reactive,BY,1,1,1,339,98,lo,lo
Axcpt,DMCC8033964,wave2,reactive,BX,1,1,1,386,99,hi,hi
Axcpt,DMCC8033964,wave2,reactive,AX,2,2,1,254,100,,lo
Axcpt,DMCC8033964,wave2,reactive,AX,2,2,1,239,101,,lo
Axcpt,DMCC8033964,wave2,reactive,BY,1,1,1,255,102,lo,lo
Axcpt,DMCC8033964,wave2,reactive,AY,1,1,1,381,103,,hi
Axcpt,DMCC8033964,wave2,reactive,AY,1,1,1,381,104,,hi
Axcpt,DMCC8033964,wave2,reactive,BY,1,1,1,335,105,lo,lo
Axcpt,DMCC8033964,wave2,reactive,BY,1,1,1,301,106,lo,lo
Axcpt,DMCC8033964,wave2,reactive,AX,2,2,1,281,107,,lo
Axcpt,DMCC8033964,wave2,reactive,AX,2,2,1,264,108,,lo
Axcpt,DMCC8033964,wave2,reactive,AX,2,2,1,273,109,,lo
Axcpt,DMCC8033964,wave2,reactive,BY,1,1,1,320,110,lo,lo
Axcpt,DMCC8033964,wave2,reactive,BY,1,1,1,269,111,lo,lo
Axcpt,DMCC8033964,wave2,reactive,AX,2,2,1,263,112,,lo
Axcpt,DMCC8033964,wave2,reactive,AX,2,2,1,279,113,,lo
Axcpt,DMCC8033964,wave2,reactive,Bng,,,1,0,114,,
Axcpt,DMCC8033964,wave2,reactive,Ang,,,1,0,115,,
Axcpt,DMCC8033964,wave2,reactive,BY,1,1,1,263,116,lo,lo
Axcpt,DMCC8033964,wave2,reactive,AX,2,2,1,290,117,,lo
Axcpt,DMCC8033964,wave2,reactive,Bng,,,1,0,118,,
Axcpt,DMCC8033964,wave2,reactive,BY,1,1,1,273,119,lo,lo
Axcpt,DMCC8033964,wave2,reactive,Ang,,,1,0,120,,
Axcpt,DMCC8033964,wave2,reactive,AX,2,2,1,302,121,,lo
Axcpt,DMCC8033964,wave2,reactive,BY,1,1,1,219,122,lo,lo
Axcpt,DMCC8033964,wave2,reactive,AX,2,2,1,285,123,,lo
Axcpt,DMCC8033964,wave2,reactive,AX,2,2,1,300,124,,lo
Axcpt,DMCC8033964,wave2,reactive,AX,2,2,1,300,125,,lo
Axcpt,DMCC8033964,wave2,reactive,AX,2,2,1,265,126,,lo
Axcpt,DMCC8033964,wave2,reactive,BY,1,1,1,260,127,lo,lo
Axcpt,DMCC8033964,wave2,reactive,AX,2,2,1,281,128,,lo
Axcpt,DMCC8033964,wave2,reactive,AX,2,2,1,310,129,,lo
Axcpt,DMCC8033964,wave2,reactive,Ang,,,1,0,130,,
Axcpt,DMCC8033964,wave2,reactive,BY,1,1,1,351,131,lo,lo
Axcpt,DMCC8033964,wave2,reactive,BY,1,1,1,378,132,lo,lo
Axcpt,DMCC8033964,wave2,reactive,BY,1,1,1,267,133,lo,lo
Axcpt,DMCC8033964,wave2,reactive,AY,1,1,1,364,134,,hi
Axcpt,DMCC8033964,wave2,reactive,Ang,,,1,0,135,,
Axcpt,DMCC8033964,wave2,reactive,BY,1,1,1,235,136,lo,lo
Axcpt,DMCC8033964,wave2,reactive,BX,1,1,1,453,137,hi,hi
Axcpt,DMCC8033964,wave2,reactive,Bng,,,1,0,138,,
Axcpt,DMCC8033964,wave2,reactive,AY,1,1,1,335,139,,hi
Axcpt,DMCC8033964,wave2,reactive,AX,2,2,1,259,140,,lo
Axcpt,DMCC8033964,wave2,reactive,BY,1,1,1,267,141,lo,lo
Axcpt,DMCC8033964,wave2,reactive,BY,1,1,1,234,142,lo,lo
Axcpt,DMCC8033964,wave2,reactive,BX,1,1,1,332,143,hi,hi
Axcpt,DMCC8033964,wave2,reactive,Bng,,,1,0,144,,
Axcpt,DMCC8033964,wave3,baseline,Ang,,,1,0,1,,
Axcpt,DMCC8033964,wave3,baseline,BY,1,1,1,431,2,lo,lo
Axcpt,DMCC8033964,wave3,baseline,BY,1,1,1,397,3,lo,lo
Axcpt,DMCC8033964,wave3,baseline,BX,1,1,1,355,4,hi,hi
Axcpt,DMCC8033964,wave3,baseline,AY,1,1,1,598,5,,hi
Axcpt,DMCC8033964,wave3,baseline,BY,1,1,1,550,6,lo,lo
Axcpt,DMCC8033964,wave3,baseline,Bng,,,1,0,7,,
Axcpt,DMCC8033964,wave3,baseline,BX,1,1,1,404,8,hi,hi
Axcpt,DMCC8033964,wave3,baseline,AX,2,2,1,341,9,,lo
Axcpt,DMCC8033964,wave3,baseline,Bng,,,1,0,10,,
Axcpt,DMCC8033964,wave3,baseline,AX,2,2,1,381,11,,lo
Axcpt,DMCC8033964,wave3,baseline,AX,2,2,1,345,12,,lo
Axcpt,DMCC8033964,wave3,baseline,BY,1,1,1,362,13,lo,lo
Axcpt,DMCC8033964,wave3,baseline,AX,2,2,1,302,14,,lo
Axcpt,DMCC8033964,wave3,baseline,BY,1,1,1,456,15,lo,lo
Axcpt,DMCC8033964,wave3,baseline,BY,1,1,1,364,16,lo,lo
Axcpt,DMCC8033964,wave3,baseline,AX,2,2,1,369,17,,lo
Axcpt,DMCC8033964,wave3,baseline,AY,1,1,1,434,18,,hi
Axcpt,DMCC8033964,wave3,baseline,AX,2,2,1,344,19,,lo
Axcpt,DMCC8033964,wave3,baseline,BY,1,1,1,365,20,lo,lo
Axcpt,DMCC8033964,wave3,baseline,BY,1,1,1,358,21,lo,lo
Axcpt,DMCC8033964,wave3,baseline,AX,2,2,1,498,22,,lo
Axcpt,DMCC8033964,wave3,baseline,Ang,,,1,0,23,,
Axcpt,DMCC8033964,wave3,baseline,AX,2,2,1,313,24,,lo
Axcpt,DMCC8033964,wave3,baseline,Bng,,,1,0,25,,
Axcpt,DMCC8033964,wave3,baseline,BY,1,1,1,324,26,lo,lo
Axcpt,DMCC8033964,wave3,baseline,AX,2,2,1,328,27,,lo
Axcpt,DMCC8033964,wave3,baseline,BY,1,1,1,278,28,lo,lo
Axcpt,DMCC8033964,wave3,baseline,AX,2,2,1,266,29,,lo
Axcpt,DMCC8033964,wave3,baseline,BY,1,1,1,445,30,lo,lo
Axcpt,DMCC8033964,wave3,baseline,AY,1,1,1,445,31,,hi
Axcpt,DMCC8033964,wave3,baseline,AX,2,2,1,287,32,,lo
Axcpt,DMCC8033964,wave3,baseline,BY,1,1,1,322,33,lo,lo
Axcpt,DMCC8033964,wave3,baseline,Bng,,,1,0,34,,
Axcpt,DMCC8033964,wave3,baseline,BY,1,1,1,317,35,lo,lo
Axcpt,DMCC8033964,wave3,baseline,AX,2,2,1,311,36,,lo
Axcpt,DMCC8033964,wave3,baseline,BY,1,1,1,350,37,lo,lo
Axcpt,DMCC8033964,wave3,baseline,AY,1,1,1,369,38,,hi
Axcpt,DMCC8033964,wave3,baseline,AX,2,2,1,347,39,,lo
Axcpt,DMCC8033964,wave3,baseline,BY,1,1,1,314,40,lo,lo
Axcpt,DMCC8033964,wave3,baseline,Ang,,,1,0,41,,
Axcpt,DMCC8033964,wave3,baseline,BX,1,1,1,445,42,hi,hi
Axcpt,DMCC8033964,wave3,baseline,AX,2,2,1,350,43,,lo
Axcpt,DMCC8033964,wave3,baseline,BX,1,1,1,405,44,hi,hi
Axcpt,DMCC8033964,wave3,baseline,AX,2,2,1,349,45,,lo
Axcpt,DMCC8033964,wave3,baseline,BY,1,1,1,372,46,lo,lo
Axcpt,DMCC8033964,wave3,baseline,Ang,,,1,0,47,,
Axcpt,DMCC8033964,wave3,baseline,AX,2,2,1,304,48,,lo
Axcpt,DMCC8033964,wave3,baseline,BY,1,1,1,457,49,lo,lo
Axcpt,DMCC8033964,wave3,baseline,AX,2,2,1,281,50,,lo
Axcpt,DMCC8033964,wave3,baseline,AX,2,2,1,312,51,,lo
Axcpt,DMCC8033964,wave3,baseline,AX,2,2,1,328,52,,lo
Axcpt,DMCC8033964,wave3,baseline,BY,1,1,1,330,53,lo,lo
Axcpt,DMCC8033964,wave3,baseline,BY,1,1,1,317,54,lo,lo
Axcpt,DMCC8033964,wave3,baseline,BY,1,1,1,341,55,lo,lo
Axcpt,DMCC8033964,wave3,baseline,BX,1,1,1,369,56,hi,hi
Axcpt,DMCC8033964,wave3,baseline,BY,1,1,1,311,57,lo,lo
Axcpt,DMCC8033964,wave3,baseline,AY,1,1,1,483,58,,hi
Axcpt,DMCC8033964,wave3,baseline,AX,2,2,1,296,59,,lo
Axcpt,DMCC8033964,wave3,baseline,Ang,,,1,0,60,,
Axcpt,DMCC8033964,wave3,baseline,BY,1,1,1,330,61,lo,lo
Axcpt,DMCC8033964,wave3,baseline,BY,1,1,1,304,62,lo,lo
Axcpt,DMCC8033964,wave3,baseline,AX,2,2,1,236,63,,lo
Axcpt,DMCC8033964,wave3,baseline,Bng,,,1,0,64,,
Axcpt,DMCC8033964,wave3,baseline,AX,2,2,1,297,65,,lo
Axcpt,DMCC8033964,wave3,baseline,BY,1,1,1,339,66,lo,lo
Axcpt,DMCC8033964,wave3,baseline,AX,2,2,1,325,67,,lo
Axcpt,DMCC8033964,wave3,baseline,Bng,,,1,0,68,,
Axcpt,DMCC8033964,wave3,baseline,AY,1,2,0,419,69,,hi
Axcpt,DMCC8033964,wave3,baseline,BX,1,1,1,360,70,hi,hi
Axcpt,DMCC8033964,wave3,baseline,AX,2,2,1,371,71,,lo
Axcpt,DMCC8033964,wave3,baseline,Ang,,,1,0,72,,
Axcpt,DMCC8033964,wave3,baseline,BX,1,1,1,436,73,hi,hi
Axcpt,DMCC8033964,wave3,baseline,AX,2,2,1,295,74,,lo
Axcpt,DMCC8033964,wave3,baseline,Ang,,,1,0,75,,
Axcpt,DMCC8033964,wave3,baseline,BY,1,1,1,344,76,lo,lo
Axcpt,DMCC8033964,wave3,baseline,BY,1,1,1,426,77,lo,lo
Axcpt,DMCC8033964,wave3,baseline,Ang,,,1,0,78,,
Axcpt,DMCC8033964,wave3,baseline,AX,2,2,1,252,79,,lo
Axcpt,DMCC8033964,wave3,baseline,AX,2,2,1,323,80,,lo
Axcpt,DMCC8033964,wave3,baseline,BY,1,1,1,299,81,lo,lo
Axcpt,DMCC8033964,wave3,baseline,Bng,,1,0,320,82,,
Axcpt,DMCC8033964,wave3,baseline,Bng,,,1,0,83,,
Axcpt,DMCC8033964,wave3,baseline,AY,1,1,1,723,84,,hi
Axcpt,DMCC8033964,wave3,baseline,BY,1,1,1,326,85,lo,lo
Axcpt,DMCC8033964,wave3,baseline,BY,1,1,1,400,86,lo,lo
Axcpt,DMCC8033964,wave3,baseline,BX,1,1,1,417,87,hi,hi
Axcpt,DMCC8033964,wave3,baseline,BY,1,1,1,329,88,lo,lo
Axcpt,DMCC8033964,wave3,baseline,AX,2,2,1,264,89,,lo
Axcpt,DMCC8033964,wave3,baseline,AY,1,1,1,361,90,,hi
Axcpt,DMCC8033964,wave3,baseline,AX,2,2,1,362,91,,lo
Axcpt,DMCC8033964,wave3,baseline,BY,1,1,1,298,92,lo,lo
Axcpt,DMCC8033964,wave3,baseline,AX,2,2,1,254,93,,lo
Axcpt,DMCC8033964,wave3,baseline,AX,2,2,1,310,94,,lo
Axcpt,DMCC8033964,wave3,baseline,AX,2,2,1,385,95,,lo
Axcpt,DMCC8033964,wave3,baseline,BY,1,1,1,267,96,lo,lo
Axcpt,DMCC8033964,wave3,baseline,Ang,,,1,0,97,,
Axcpt,DMCC8033964,wave3,baseline,Ang,,,1,0,98,,
Axcpt,DMCC8033964,wave3,baseline,BY,1,1,1,336,99,lo,lo
Axcpt,DMCC8033964,wave3,baseline,AX,2,2,1,281,100,,lo
Axcpt,DMCC8033964,wave3,baseline,AX,2,2,1,290,101,,lo
Axcpt,DMCC8033964,wave3,baseline,AX,2,2,1,302,102,,lo
Axcpt,DMCC8033964,wave3,baseline,AY,1,1,1,384,103,,hi
Axcpt,DMCC8033964,wave3,baseline,AX,2,2,1,294,104,,lo
Axcpt,DMCC8033964,wave3,baseline,Bng,,,1,0,105,,
Axcpt,DMCC8033964,wave3,baseline,BY,1,1,1,456,106,lo,lo
Axcpt,DMCC8033964,wave3,baseline,BY,1,1,1,333,107,lo,lo
Axcpt,DMCC8033964,wave3,baseline,BY,1,1,1,336,108,lo,lo
Axcpt,DMCC8033964,wave3,baseline,BY,1,1,1,280,109,lo,lo
Axcpt,DMCC8033964,wave3,baseline,Bng,,,1,0,110,,
Axcpt,DMCC8033964,wave3,baseline,AX,2,2,1,380,111,,lo
Axcpt,DMCC8033964,wave3,baseline,AX,2,2,1,301,112,,lo
Axcpt,DMCC8033964,wave3,baseline,BY,1,1,1,319,113,lo,lo
Axcpt,DMCC8033964,wave3,baseline,AX,2,2,1,327,114,,lo
Axcpt,DMCC8033964,wave3,baseline,BY,1,1,1,371,115,lo,lo
Axcpt,DMCC8033964,wave3,baseline,BX,1,1,1,329,116,hi,hi
Axcpt,DMCC8033964,wave3,baseline,BX,1,1,1,352,117,hi,hi
Axcpt,DMCC8033964,wave3,baseline,BY,1,1,1,334,118,lo,lo
Axcpt,DMCC8033964,wave3,baseline,AY,1,1,1,378,119,,hi
Axcpt,DMCC8033964,wave3,baseline,AX,2,2,1,347,120,,lo
Axcpt,DMCC8033964,wave3,baseline,BY,1,1,1,377,121,lo,lo
Axcpt,DMCC8033964,wave3,baseline,BY,1,1,1,371,122,lo,lo
Axcpt,DMCC8033964,wave3,baseline,BY,1,1,1,328,123,lo,lo
Axcpt,DMCC8033964,wave3,baseline,AX,2,2,1,278,124,,lo
Axcpt,DMCC8033964,wave3,baseline,BY,1,1,1,331,125,lo,lo
Axcpt,DMCC8033964,wave3,baseline,Ang,,,1,0,126,,
Axcpt,DMCC8033964,wave3,baseline,Bng,,,1,0,127,,
Axcpt,DMCC8033964,wave3,baseline,AX,2,2,1,287,128,,lo
Axcpt,DMCC8033964,wave3,baseline,BY,1,1,1,324,129,lo,lo
Axcpt,DMCC8033964,wave3,baseline,AX,2,2,1,350,130,,lo
Axcpt,DMCC8033964,wave3,baseline,BY,1,1,1,368,131,lo,lo
Axcpt,DMCC8033964,wave3,baseline,Bng,,,1,0,132,,
Axcpt,DMCC8033964,wave3,baseline,BX,1,1,1,321,133,hi,hi
Axcpt,DMCC8033964,wave3,baseline,AX,2,2,1,335,134,,lo
Axcpt,DMCC8033964,wave3,baseline,BY,1,1,1,320,135,lo,lo
Axcpt,DMCC8033964,wave3,baseline,AY,1,1,1,364,136,,hi
Axcpt,DMCC8033964,wave3,baseline,AX,2,2,1,489,137,,lo
Axcpt,DMCC8033964,wave3,baseline,AY,1,1,1,479,138,,hi
Axcpt,DMCC8033964,wave3,baseline,BY,1,1,1,308,139,lo,lo
Axcpt,DMCC8033964,wave3,baseline,BX,1,1,1,335,140,hi,hi
Axcpt,DMCC8033964,wave3,baseline,Ang,,1,0,327,141,,
Axcpt,DMCC8033964,wave3,baseline,AX,2,2,1,401,142,,lo
Axcpt,DMCC8033964,wave3,baseline,AX,2,2,1,301,143,,lo
Axcpt,DMCC8033964,wave3,baseline,AX,2,2,1,372,144,,lo
Axcpt,DMCC8033964,wave3,proactive,BY,1,1,1,314,1,lo,lo
Axcpt,DMCC8033964,wave3,proactive,AX,2,2,1,314,2,,lo
Axcpt,DMCC8033964,wave3,proactive,Bng,,1,0,343,3,,
Axcpt,DMCC8033964,wave3,proactive,Ang,,,1,0,4,,
Axcpt,DMCC8033964,wave3,proactive,AX,2,2,1,378,5,,lo
Axcpt,DMCC8033964,wave3,proactive,BY,1,1,1,334,6,lo,lo
Axcpt,DMCC8033964,wave3,proactive,BY,1,1,1,252,7,lo,lo
Axcpt,DMCC8033964,wave3,proactive,BY,1,1,1,254,8,lo,lo
Axcpt,DMCC8033964,wave3,proactive,AY,1,1,1,519,9,,hi
Axcpt,DMCC8033964,wave3,proactive,BY,1,1,1,345,10,lo,lo
Axcpt,DMCC8033964,wave3,proactive,AX,2,2,1,297,11,,lo
Axcpt,DMCC8033964,wave3,proactive,BY,1,1,1,272,12,lo,lo
Axcpt,DMCC8033964,wave3,proactive,AX,2,2,1,223,13,,lo
Axcpt,DMCC8033964,wave3,proactive,BX,1,1,1,256,14,hi,hi
Axcpt,DMCC8033964,wave3,proactive,BY,1,1,1,301,15,lo,lo
Axcpt,DMCC8033964,wave3,proactive,AX,2,2,1,299,16,,lo
Axcpt,DMCC8033964,wave3,proactive,AX,2,2,1,263,17,,lo
Axcpt,DMCC8033964,wave3,proactive,Ang,,,1,0,18,,
Axcpt,DMCC8033964,wave3,proactive,AX,2,2,1,247,19,,lo
Axcpt,DMCC8033964,wave3,proactive,AY,1,1,1,489,20,,hi
Axcpt,DMCC8033964,wave3,proactive,BY,1,1,1,315,21,lo,lo
Axcpt,DMCC8033964,wave3,proactive,AX,2,2,1,207,22,,lo
Axcpt,DMCC8033964,wave3,proactive,Bng,,,1,0,23,,
Axcpt,DMCC8033964,wave3,proactive,BX,1,1,1,421,24,hi,hi
Axcpt,DMCC8033964,wave3,proactive,BY,1,1,1,297,25,lo,lo
Axcpt,DMCC8033964,wave3,proactive,BY,1,1,1,322,26,lo,lo
Axcpt,DMCC8033964,wave3,proactive,Bng,,,1,0,27,,
Axcpt,DMCC8033964,wave3,proactive,BY,1,1,1,236,28,lo,lo
Axcpt,DMCC8033964,wave3,proactive,BY,1,1,1,323,29,lo,lo
Axcpt,DMCC8033964,wave3,proactive,BY,1,1,1,292,30,lo,lo
Axcpt,DMCC8033964,wave3,proactive,Ang,,,1,0,31,,
Axcpt,DMCC8033964,wave3,proactive,BX,1,1,1,324,32,hi,hi
Axcpt,DMCC8033964,wave3,proactive,BY,1,1,1,342,33,lo,lo
Axcpt,DMCC8033964,wave3,proactive,BY,1,1,1,307,34,lo,lo
Axcpt,DMCC8033964,wave3,proactive,AX,2,2,1,329,35,,lo
Axcpt,DMCC8033964,wave3,proactive,BY,1,1,1,368,36,lo,lo
Axcpt,DMCC8033964,wave3,proactive,AY,1,1,1,516,37,,hi
Axcpt,DMCC8033964,wave3,proactive,Ang,,,1,0,38,,
Axcpt,DMCC8033964,wave3,proactive,AX,2,2,1,255,39,,lo
Axcpt,DMCC8033964,wave3,proactive,AX,2,2,1,262,40,,lo
Axcpt,DMCC8033964,wave3,proactive,AX,2,1,0,358,41,,lo
Axcpt,DMCC8033964,wave3,proactive,AX,2,2,1,439,42,,lo
Axcpt,DMCC8033964,wave3,proactive,AX,2,2,1,364,43,,lo
Axcpt,DMCC8033964,wave3,proactive,AX,2,2,1,402,44,,lo
Axcpt,DMCC8033964,wave3,proactive,AX,2,2,1,318,45,,lo
Axcpt,DMCC8033964,wave3,proactive,BX,1,1,1,268,46,hi,hi
Axcpt,DMCC8033964,wave3,proactive,Bng,,,1,0,47,,
Axcpt,DMCC8033964,wave3,proactive,AY,1,1,1,552,48,,hi
Axcpt,DMCC8033964,wave3,proactive,BY,1,1,1,283,49,lo,lo
Axcpt,DMCC8033964,wave3,proactive,Bng,,,1,0,50,,
Axcpt,DMCC8033964,wave3,proactive,AX,2,2,1,284,51,,lo
Axcpt,DMCC8033964,wave3,proactive,Ang,,,1,0,52,,
Axcpt,DMCC8033964,wave3,proactive,Bng,,,1,0,53,,
Axcpt,DMCC8033964,wave3,proactive,AX,2,2,1,230,54,,lo
Axcpt,DMCC8033964,wave3,proactive,AX,2,2,1,291,55,,lo
Axcpt,DMCC8033964,wave3,proactive,BX,1,1,1,376,56,hi,hi
Axcpt,DMCC8033964,wave3,proactive,BY,1,1,1,406,57,lo,lo
Axcpt,DMCC8033964,wave3,proactive,BY,1,1,1,290,58,lo,lo
Axcpt,DMCC8033964,wave3,proactive,AX,2,2,1,362,59,,lo
Axcpt,DMCC8033964,wave3,proactive,BX,1,1,1,394,60,hi,hi
Axcpt,DMCC8033964,wave3,proactive,BY,1,1,1,343,61,lo,lo
Axcpt,DMCC8033964,wave3,proactive,AX,2,2,1,291,62,,lo
Axcpt,DMCC8033964,wave3,proactive,BY,1,1,1,299,63,lo,lo
Axcpt,DMCC8033964,wave3,proactive,Ang,,,1,0,64,,
Axcpt,DMCC8033964,wave3,proactive,BY,1,1,1,315,65,lo,lo
Axcpt,DMCC8033964,wave3,proactive,AY,1,1,1,735,66,,hi
Axcpt,DMCC8033964,wave3,proactive,BY,1,1,1,306,67,lo,lo
Axcpt,DMCC8033964,wave3,proactive,AX,2,2,1,248,68,,lo
Axcpt,DMCC8033964,wave3,proactive,AX,2,2,1,329,69,,lo
Axcpt,DMCC8033964,wave3,proactive,BY,1,1,1,328,70,lo,lo
Axcpt,DMCC8033964,wave3,proactive,AX,2,2,1,296,71,,lo
Axcpt,DMCC8033964,wave3,proactive,AY,1,1,1,441,72,,hi
Axcpt,DMCC8033964,wave3,proactive,AX,2,2,1,243,73,,lo
Axcpt,DMCC8033964,wave3,proactive,Ang,,1,0,445,74,,
Axcpt,DMCC8033964,wave3,proactive,AX,2,2,1,233,75,,lo
Axcpt,DMCC8033964,wave3,proactive,AX,2,2,1,352,76,,lo
Axcpt,DMCC8033964,wave3,proactive,AX,2,2,1,255,77,,lo
Axcpt,DMCC8033964,wave3,proactive,BY,1,1,1,304,78,lo,lo
Axcpt,DMCC8033964,wave3,proactive,Ang,,,1,0,79,,
Axcpt,DMCC8033964,wave3,proactive,BY,1,1,1,307,80,lo,lo
Axcpt,DMCC8033964,wave3,proactive,AX,2,2,1,332,81,,lo
Axcpt,DMCC8033964,wave3,proactive,BX,1,1,1,453,82,hi,hi
Axcpt,DMCC8033964,wave3,proactive,BY,1,1,1,245,83,lo,lo
Axcpt,DMCC8033964,wave3,proactive,BY,1,1,1,294,84,lo,lo
Axcpt,DMCC8033964,wave3,proactive,Bng,,,1,0,85,,
Axcpt,DMCC8033964,wave3,proactive,AX,2,2,1,275,86,,lo
Axcpt,DMCC8033964,wave3,proactive,BY,1,1,1,378,87,lo,lo
Axcpt,DMCC8033964,wave3,proactive,AY,1,2,0,252,88,,hi
Axcpt,DMCC8033964,wave3,proactive,AY,1,2,0,302,89,,hi
Axcpt,DMCC8033964,wave3,proactive,BY,1,1,1,331,90,lo,lo
Axcpt,DMCC8033964,wave3,proactive,Bng,,,1,0,91,,
Axcpt,DMCC8033964,wave3,proactive,AX,2,2,1,318,92,,lo
Axcpt,DMCC8033964,wave3,proactive,BX,1,1,1,332,93,hi,hi
Axcpt,DMCC8033964,wave3,proactive,BY,1,1,1,336,94,lo,lo
Axcpt,DMCC8033964,wave3,proactive,AX,2,2,1,330,95,,lo
Axcpt,DMCC8033964,wave3,proactive,BY,1,1,1,408,96,lo,lo
Axcpt,DMCC8033964,wave3,proactive,Bng,,,1,0,97,,
Axcpt,DMCC8033964,wave3,proactive,BX,1,1,1,451,98,hi,hi
Axcpt,DMCC8033964,wave3,proactive,BY,1,1,1,313,99,lo,lo
Axcpt,DMCC8033964,wave3,proactive,BY,1,1,1,309,100,lo,lo
Axcpt,DMCC8033964,wave3,proactive,AY,1,1,1,515,101,,hi
Axcpt,DMCC8033964,wave3,proactive,Ang,,,1,0,102,,
Axcpt,DMCC8033964,wave3,proactive,BY,1,1,1,317,103,lo,lo
Axcpt,DMCC8033964,wave3,proactive,AX,2,2,1,210,104,,lo
Axcpt,DMCC8033964,wave3,proactive,AX,2,2,1,242,105,,lo
Axcpt,DMCC8033964,wave3,proactive,AX,2,2,1,306,106,,lo
Axcpt,DMCC8033964,wave3,proactive,BX,1,1,1,274,107,hi,hi
Axcpt,DMCC8033964,wave3,proactive,AX,2,2,1,345,108,,lo
Axcpt,DMCC8033964,wave3,proactive,AX,2,2,1,255,109,,lo
Axcpt,DMCC8033964,wave3,proactive,BY,1,1,1,290,110,lo,lo
Axcpt,DMCC8033964,wave3,proactive,AY,1,1,1,497,111,,hi
Axcpt,DMCC8033964,wave3,proactive,AX,2,2,1,330,112,,lo
Axcpt,DMCC8033964,wave3,proactive,Ang,,,1,0,113,,
Axcpt,DMCC8033964,wave3,proactive,BY,1,1,1,375,114,lo,lo
Axcpt,DMCC8033964,wave3,proactive,AX,2,2,1,187,115,,lo
Axcpt,DMCC8033964,wave3,proactive,BY,1,1,1,318,116,lo,lo
Axcpt,DMCC8033964,wave3,proactive,AX,2,2,1,322,117,,lo
Axcpt,DMCC8033964,wave3,proactive,BY,1,1,1,351,118,lo,lo
Axcpt,DMCC8033964,wave3,proactive,BY,1,1,1,274,119,lo,lo
Axcpt,DMCC8033964,wave3,proactive,Bng,,1,0,324,120,,
Axcpt,DMCC8033964,wave3,proactive,BY,1,1,1,411,121,lo,lo
Axcpt,DMCC8033964,wave3,proactive,AX,2,2,1,329,122,,lo
Axcpt,DMCC8033964,wave3,proactive,Ang,,,1,0,123,,
Axcpt,DMCC8033964,wave3,proactive,BX,1,1,1,471,124,hi,hi
Axcpt,DMCC8033964,wave3,proactive,AY,1,1,1,505,125,,hi
Axcpt,DMCC8033964,wave3,proactive,BY,1,1,1,262,126,lo,lo
Axcpt,DMCC8033964,wave3,proactive,AX,2,2,1,274,127,,lo
Axcpt,DMCC8033964,wave3,proactive,AX,2,2,1,299,128,,lo
Axcpt,DMCC8033964,wave3,proactive,AY,1,1,1,405,129,,hi
Axcpt,DMCC8033964,wave3,proactive,Bng,,,1,0,130,,
Axcpt,DMCC8033964,wave3,proactive,AX,2,2,1,294,131,,lo
Axcpt,DMCC8033964,wave3,proactive,BY,1,1,1,494,132,lo,lo
Axcpt,DMCC8033964,wave3,proactive,BY,1,1,1,321,133,lo,lo
Axcpt,DMCC8033964,wave3,proactive,BY,1,1,1,287,134,lo,lo
Axcpt,DMCC8033964,wave3,proactive,Bng,,1,0,353,135,,
Axcpt,DMCC8033964,wave3,proactive,AX,2,2,1,268,136,,lo
Axcpt,DMCC8033964,wave3,proactive,AX,2,2,1,271,137,,lo
Axcpt,DMCC8033964,wave3,proactive,Ang,,,1,0,138,,
Axcpt,DMCC8033964,wave3,proactive,AX,2,2,1,344,139,,lo
Axcpt,DMCC8033964,wave3,proactive,AX,2,2,1,269,140,,lo
Axcpt,DMCC8033964,wave3,proactive,BY,1,1,1,473,141,lo,lo
Axcpt,DMCC8033964,wave3,proactive,BY,1,1,1,471,142,lo,lo
Axcpt,DMCC8033964,wave3,proactive,BX,1,1,1,324,143,hi,hi
Axcpt,DMCC8033964,wave3,proactive,BY,1,1,1,317,144,lo,lo
Axcpt,DMCC8033964,wave3,reactive,AX,2,2,1,386,1,,lo
Axcpt,DMCC8033964,wave3,reactive,BY,1,1,1,368,2,lo,lo
Axcpt,DMCC8033964,wave3,reactive,BY,1,1,1,382,3,lo,lo
Axcpt,DMCC8033964,wave3,reactive,BY,1,1,1,293,4,lo,lo
Axcpt,DMCC8033964,wave3,reactive,BY,1,1,1,366,5,lo,lo
Axcpt,DMCC8033964,wave3,reactive,AX,2,2,1,303,6,,lo
Axcpt,DMCC8033964,wave3,reactive,AX,2,2,1,260,7,,lo
Axcpt,DMCC8033964,wave3,reactive,Ang,,,1,0,8,,
Axcpt,DMCC8033964,wave3,reactive,BY,1,1,1,221,9,lo,lo
Axcpt,DMCC8033964,wave3,reactive,Bng,,,1,0,10,,
Axcpt,DMCC8033964,wave3,reactive,AX,2,1,0,290,11,,lo
Axcpt,DMCC8033964,wave3,reactive,BY,1,1,1,302,12,lo,lo
Axcpt,DMCC8033964,wave3,reactive,BX,1,1,1,355,13,hi,hi
Axcpt,DMCC8033964,wave3,reactive,AX,2,2,1,294,14,,lo
Axcpt,DMCC8033964,wave3,reactive,AX,2,2,1,282,15,,lo
Axcpt,DMCC8033964,wave3,reactive,AX,2,2,1,289,16,,lo
Axcpt,DMCC8033964,wave3,reactive,BY,1,1,1,426,17,lo,lo
Axcpt,DMCC8033964,wave3,reactive,BX,1,1,1,359,18,hi,hi
Axcpt,DMCC8033964,wave3,reactive,AX,2,2,1,278,19,,lo
Axcpt,DMCC8033964,wave3,reactive,Bng,,,1,0,20,,
Axcpt,DMCC8033964,wave3,reactive,Ang,,,1,0,21,,
Axcpt,DMCC8033964,wave3,reactive,AY,1,1,1,445,22,,hi
Axcpt,DMCC8033964,wave3,reactive,AY,1,1,1,364,23,,hi
Axcpt,DMCC8033964,wave3,reactive,BY,1,1,1,376,24,lo,lo
Axcpt,DMCC8033964,wave3,reactive,AX,2,2,1,348,25,,lo
Axcpt,DMCC8033964,wave3,reactive,BX,1,1,1,352,26,hi,hi
Axcpt,DMCC8033964,wave3,reactive,AX,2,2,1,272,27,,lo
Axcpt,DMCC8033964,wave3,reactive,BY,1,1,1,364,28,lo,lo
Axcpt,DMCC8033964,wave3,reactive,AX,2,2,1,273,29,,lo
Axcpt,DMCC8033964,wave3,reactive,AX,2,2,1,318,30,,lo
Axcpt,DMCC8033964,wave3,reactive,BY,1,1,1,301,31,lo,lo
Axcpt,DMCC8033964,wave3,reactive,AX,2,2,1,391,32,,lo
Axcpt,DMCC8033964,wave3,reactive,Bng,,,1,0,33,,
Axcpt,DMCC8033964,wave3,reactive,BY,1,1,1,284,34,lo,lo
Axcpt,DMCC8033964,wave3,reactive,BY,1,1,1,279,35,lo,lo
Axcpt,DMCC8033964,wave3,reactive,AX,2,2,1,286,36,,lo
Axcpt,DMCC8033964,wave3,reactive,Bng,,,1,0,37,,
Axcpt,DMCC8033964,wave3,reactive,Ang,,,1,0,38,,
Axcpt,DMCC8033964,wave3,reactive,AY,1,1,1,489,39,,hi
Axcpt,DMCC8033964,wave3,reactive,AX,2,2,1,248,40,,lo
Axcpt,DMCC8033964,wave3,reactive,BY,1,1,1,229,41,lo,lo
Axcpt,DMCC8033964,wave3,reactive,BY,1,1,1,275,42,lo,lo
Axcpt,DMCC8033964,wave3,reactive,Ang,,,1,0,43,,
Axcpt,DMCC8033964,wave3,reactive,AX,2,2,1,348,44,,lo
Axcpt,DMCC8033964,wave3,reactive,BX,1,1,1,406,45,hi,hi
Axcpt,DMCC8033964,wave3,reactive,BY,1,1,1,281,46,lo,lo
Axcpt,DMCC8033964,wave3,reactive,AY,1,2,0,374,47,,hi
Axcpt,DMCC8033964,wave3,reactive,BY,1,1,1,340,48,lo,lo
Axcpt,DMCC8033964,wave3,reactive,AY,1,1,1,344,49,,hi
Axcpt,DMCC8033964,wave3,reactive,BY,1,1,1,207,50,lo,lo
Axcpt,DMCC8033964,wave3,reactive,Ang,,,1,0,51,,
Axcpt,DMCC8033964,wave3,reactive,Bng,,,1,0,52,,
Axcpt,DMCC8033964,wave3,reactive,AX,2,2,1,299,53,,lo
Axcpt,DMCC8033964,wave3,reactive,BY,1,1,1,299,54,lo,lo
Axcpt,DMCC8033964,wave3,reactive,BY,1,1,1,272,55,lo,lo
Axcpt,DMCC8033964,wave3,reactive,BY,1,1,1,318,56,lo,lo
Axcpt,DMCC8033964,wave3,reactive,BY,1,1,1,344,57,lo,lo
Axcpt,DMCC8033964,wave3,reactive,Bng,,,1,0,58,,
Axcpt,DMCC8033964,wave3,reactive,AX,2,2,1,263,59,,lo
Axcpt,DMCC8033964,wave3,reactive,AX,2,2,1,295,60,,lo
Axcpt,DMCC8033964,wave3,reactive,AX,2,2,1,391,61,,lo
Axcpt,DMCC8033964,wave3,reactive,BX,1,1,1,419,62,hi,hi
Axcpt,DMCC8033964,wave3,reactive,BX,1,1,1,424,63,hi,hi
Axcpt,DMCC8033964,wave3,reactive,AX,2,2,1,317,64,,lo
Axcpt,DMCC8033964,wave3,reactive,AY,1,1,1,395,65,,hi
Axcpt,DMCC8033964,wave3,reactive,AX,2,2,1,294,66,,lo
Axcpt,DMCC8033964,wave3,reactive,BY,1,1,1,324,67,lo,lo
Axcpt,DMCC8033964,wave3,reactive,AX,2,2,1,264,68,,lo
Axcpt,DMCC8033964,wave3,reactive,AX,2,2,1,306,69,,lo
Axcpt,DMCC8033964,wave3,reactive,BY,1,1,1,249,70,lo,lo
Axcpt,DMCC8033964,wave3,reactive,Ang,,,1,0,71,,
Axcpt,DMCC8033964,wave3,reactive,BY,1,1,1,333,72,lo,lo
Axcpt,DMCC8033964,wave3,reactive,AX,2,2,1,290,73,,lo
Axcpt,DMCC8033964,wave3,reactive,Bng,,,1,0,74,,
Axcpt,DMCC8033964,wave3,reactive,BY,1,1,1,349,75,lo,lo
Axcpt,DMCC8033964,wave3,reactive,BY,1,1,1,289,76,lo,lo
Axcpt,DMCC8033964,wave3,reactive,BY,1,1,1,349,77,lo,lo
Axcpt,DMCC8033964,wave3,reactive,AX,2,2,1,357,78,,lo
Axcpt,DMCC8033964,wave3,reactive,Ang,,,1,0,79,,
Axcpt,DMCC8033964,wave3,reactive,BY,1,1,1,352,80,lo,lo
Axcpt,DMCC8033964,wave3,reactive,AX,2,2,1,288,81,,lo
Axcpt,DMCC8033964,wave3,reactive,AX,2,2,1,283,82,,lo
Axcpt,DMCC8033964,wave3,reactive,BX,1,1,1,360,83,hi,hi
Axcpt,DMCC8033964,wave3,reactive,Bng,,,1,0,84,,
Axcpt,DMCC8033964,wave3,reactive,AY,1,1,1,419,85,,hi
Axcpt,DMCC8033964,wave3,reactive,BY,1,1,1,297,86,lo,lo
Axcpt,DMCC8033964,wave3,reactive,AY,1,1,1,335,87,,hi
Axcpt,DMCC8033964,wave3,reactive,BY,1,1,1,255,88,lo,lo
Axcpt,DMCC8033964,wave3,reactive,AX,2,2,1,215,89,,lo
Axcpt,DMCC8033964,wave3,reactive,BY,1,1,1,252,90,lo,lo
Axcpt,DMCC8033964,wave3,reactive,BX,1,1,1,402,91,hi,hi
Axcpt,DMCC8033964,wave3,reactive,AX,2,2,1,246,92,,lo
Axcpt,DMCC8033964,wave3,reactive,AX,2,2,1,319,93,,lo
Axcpt,DMCC8033964,wave3,reactive,BY,1,1,1,241,94,lo,lo
Axcpt,DMCC8033964,wave3,reactive,AX,2,2,1,163,95,,lo
Axcpt,DMCC8033964,wave3,reactive,Ang,,1,0,357,96,,
Axcpt,DMCC8033964,wave3,reactive,AX,2,2,1,251,97,,lo
Axcpt,DMCC8033964,wave3,reactive,BY,1,1,1,255,98,lo,lo
Axcpt,DMCC8033964,wave3,reactive,Ang,,,1,0,99,,
Axcpt,DMCC8033964,wave3,reactive,AY,1,1,1,417,100,,hi
Axcpt,DMCC8033964,wave3,reactive,BY,1,1,1,310,101,lo,lo
Axcpt,DMCC8033964,wave3,reactive,BX,1,1,1,352,102,hi,hi
Axcpt,DMCC8033964,wave3,reactive,BY,1,1,1,183,103,lo,lo
Axcpt,DMCC8033964,wave3,reactive,AY,1,1,1,347,104,,hi
Axcpt,DMCC8033964,wave3,reactive,BY,1,1,1,216,105,lo,lo
Axcpt,DMCC8033964,wave3,reactive,BY,1,1,1,255,106,lo,lo
Axcpt,DMCC8033964,wave3,reactive,Bng,,,1,0,107,,
Axcpt,DMCC8033964,wave3,reactive,AX,2,2,1,330,108,,lo
Axcpt,DMCC8033964,wave3,reactive,AX,2,2,1,356,109,,lo
Axcpt,DMCC8033964,wave3,reactive,BX,1,1,1,343,110,hi,hi
Axcpt,DMCC8033964,wave3,reactive,Bng,,,1,0,111,,
Axcpt,DMCC8033964,wave3,reactive,BY,1,1,1,387,112,lo,lo
Axcpt,DMCC8033964,wave3,reactive,AX,2,2,1,296,113,,lo
Axcpt,DMCC8033964,wave3,reactive,BY,1,1,1,334,114,lo,lo
Axcpt,DMCC8033964,wave3,reactive,AX,2,2,1,252,115,,lo
Axcpt,DMCC8033964,wave3,reactive,AX,2,2,1,203,116,,lo
Axcpt,DMCC8033964,wave3,reactive,BY,1,1,1,219,117,lo,lo
Axcpt,DMCC8033964,wave3,reactive,Ang,,,1,0,118,,
Axcpt,DMCC8033964,wave3,reactive,AX,2,2,1,307,119,,lo
Axcpt,DMCC8033964,wave3,reactive,AX,2,2,1,213,120,,lo
Axcpt,DMCC8033964,wave3,reactive,Ang,,,1,0,121,,
Axcpt,DMCC8033964,wave3,reactive,AY,1,1,1,400,122,,hi
Axcpt,DMCC8033964,wave3,reactive,BY,1,1,1,319,123,lo,lo
Axcpt,DMCC8033964,wave3,reactive,AX,2,2,1,356,124,,lo
Axcpt,DMCC8033964,wave3,reactive,AX,2,2,1,230,125,,lo
Axcpt,DMCC8033964,wave3,reactive,Bng,,,1,0,126,,
Axcpt,DMCC8033964,wave3,reactive,AX,2,2,1,360,127,,lo
Axcpt,DMCC8033964,wave3,reactive,BY,1,1,1,216,128,lo,lo
Axcpt,DMCC8033964,wave3,reactive,BY,1,1,1,302,129,lo,lo
Axcpt,DMCC8033964,wave3,reactive,Bng,,,1,0,130,,
Axcpt,DMCC8033964,wave3,reactive,Ang,,,1,0,131,,
Axcpt,DMCC8033964,wave3,reactive,BY,1,1,1,245,132,lo,lo
Axcpt,DMCC8033964,wave3,reactive,BY,1,1,1,224,133,lo,lo
Axcpt,DMCC8033964,wave3,reactive,BY,1,1,1,304,134,lo,lo
Axcpt,DMCC8033964,wave3,reactive,AX,2,2,1,224,135,,lo
Axcpt,DMCC8033964,wave3,reactive,AX,2,2,1,274,136,,lo
Axcpt,DMCC8033964,wave3,reactive,BX,1,1,1,525,137,hi,hi
Axcpt,DMCC8033964,wave3,reactive,BY,1,1,1,227,138,lo,lo
Axcpt,DMCC8033964,wave3,reactive,AX,2,2,1,73,139,,lo
Axcpt,DMCC8033964,wave3,reactive,AX,2,2,1,93,140,,lo
Axcpt,DMCC8033964,wave3,reactive,AX,2,2,1,258,141,,lo
Axcpt,DMCC8033964,wave3,reactive,BY,1,1,1,268,142,lo,lo
Axcpt,DMCC8033964,wave3,reactive,AY,1,1,1,365,143,,hi
Axcpt,DMCC8033964,wave3,reactive,BX,1,1,1,361,144,hi,hi
Cuedts,DMCC8033964,wave2,baseline,InConNoInc,1,1,1,635,1,,hi
Cuedts,DMCC8033964,wave2,baseline,InConInc,1,1,1,656,2,hi,hi
Cuedts,DMCC8033964,wave2,baseline,ConNoInc,1,1,1,691,3,,lo
Cuedts,DMCC8033964,wave2,baseline,ConNoInc,2,2,1,803,4,,lo
Cuedts,DMCC8033964,wave2,baseline,ConNoInc,1,1,1,786,5,,lo
Cuedts,DMCC8033964,wave2,baseline,ConNoInc,2,2,1,659,6,,lo
Cuedts,DMCC8033964,wave2,baseline,ConNoInc,2,2,1,681,7,,lo
Cuedts,DMCC8033964,wave2,baseline,InConNoInc,1,1,1,733,8,,hi
Cuedts,DMCC8033964,wave2,baseline,ConNoInc,1,1,1,830,9,,lo
Cuedts,DMCC8033964,wave2,baseline,ConNoInc,2,2,1,673,10,,lo
Cuedts,DMCC8033964,wave2,baseline,ConInc,1,1,1,951,11,lo,lo
Cuedts,DMCC8033964,wave2,baseline,ConNoInc,2,2,1,789,12,,lo
Cuedts,DMCC8033964,wave2,baseline,InConInc,1,1,1,945,13,hi,hi
Cuedts,DMCC8033964,wave2,baseline,InConInc,1,1,1,761,14,hi,hi
Cuedts,DMCC8033964,wave2,baseline,ConNoInc,1,1,1,878,15,,lo
Cuedts,DMCC8033964,wave2,baseline,ConInc,1,1,1,929,16,lo,lo
Cuedts,DMCC8033964,wave2,baseline,ConNoInc,2,2,1,857,17,,lo
Cuedts,DMCC8033964,wave2,baseline,InConInc,2,2,1,1033,18,hi,hi
Cuedts,DMCC8033964,wave2,baseline,ConNoInc,2,2,1,749,19,,lo
Cuedts,DMCC8033964,wave2,baseline,ConNoInc,2,2,1,951,20,,lo
Cuedts,DMCC8033964,wave2,baseline,ConInc,2,2,1,728,21,lo,lo
Cuedts,DMCC8033964,wave2,baseline,ConNoInc,1,1,1,1012,22,,lo
Cuedts,DMCC8033964,wave2,baseline,InConInc,2,2,1,703,23,hi,hi
Cuedts,DMCC8033964,wave2,baseline,InConInc,1,1,1,732,24,hi,hi
Cuedts,DMCC8033964,wave2,baseline,ConNoInc,1,1,1,840,25,,lo
Cuedts,DMCC8033964,wave2,baseline,InConInc,2,2,1,1029,26,hi,hi
Cuedts,DMCC8033964,wave2,baseline,InConNoInc,2,2,1,726,27,,hi
Cuedts,DMCC8033964,wave2,baseline,ConNoInc,2,2,1,649,28,,lo
Cuedts,DMCC8033964,wave2,baseline,InConInc,2,2,1,893,29,hi,hi
Cuedts,DMCC8033964,wave2,baseline,InConNoInc,2,2,1,924,30,,hi
Cuedts,DMCC8033964,wave2,baseline,ConNoInc,1,1,1,679,31,,lo
Cuedts,DMCC8033964,wave2,baseline,ConNoInc,1,1,1,660,32,,lo
Cuedts,DMCC8033964,wave2,baseline,ConNoInc,1,1,1,832,33,,lo
Cuedts,DMCC8033964,wave2,baseline,InConInc,2,2,1,1036,34,hi,hi
Cuedts,DMCC8033964,wave2,baseline,ConNoInc,2,2,1,715,35,,lo
Cuedts,DMCC8033964,wave2,baseline,ConNoInc,1,1,1,765,36,,lo
Cuedts,DMCC8033964,wave2,baseline,ConNoInc,1,1,1,968,37,,lo
Cuedts,DMCC8033964,wave2,baseline,InConInc,1,1,1,875,38,hi,hi
Cuedts,DMCC8033964,wave2,baseline,ConNoInc,2,2,1,882,39,,lo
Cuedts,DMCC8033964,wave2,baseline,InConInc,1,1,1,641,40,hi,hi
Cuedts,DMCC8033964,wave2,baseline,InConInc,2,2,1,832,41,hi,hi
Cuedts,DMCC8033964,wave2,baseline,ConNoInc,1,1,1,822,42,,lo
Cuedts,DMCC8033964,wave2,baseline,ConNoInc,2,2,1,903,43,,lo
Cuedts,DMCC8033964,wave2,baseline,ConNoInc,2,2,1,1121,44,,lo
Cuedts,DMCC8033964,wave2,baseline,ConNoInc,1,1,1,771,45,,lo
Cuedts,DMCC8033964,wave2,baseline,InConNoInc,2,2,1,866,46,,hi
Cuedts,DMCC8033964,wave2,baseline,ConInc,2,2,1,1022,47,lo,lo
Cuedts,DMCC8033964,wave2,baseline,ConNoInc,1,1,1,760,48,,lo
Cuedts,DMCC8033964,wave2,baseline,ConNoInc,2,2,1,712,49,,lo
Cuedts,DMCC8033964,wave2,baseline,InConInc,2,2,1,798,50,hi,hi
Cuedts,DMCC8033964,wave2,baseline,ConNoInc,1,1,1,871,51,,lo
Cuedts,DMCC8033964,wave2,baseline,ConNoInc,1,1,1,732,52,,lo
Cuedts,DMCC8033964,wave2,baseline,ConNoInc,2,2,1,757,53,,lo
Cuedts,DMCC8033964,wave2,baseline,InConInc,1,1,1,812,54,hi,hi
Cuedts,DMCC8033964,wave2,baseline,ConNoInc,2,2,1,768,55,,lo
Cuedts,DMCC8033964,wave2,baseline,ConNoInc,1,1,1,667,56,,lo
Cuedts,DMCC8033964,wave2,baseline,InConInc,1,1,1,747,57,hi,hi
Cuedts,DMCC8033964,wave2,baseline,ConNoInc,2,2,1,810,58,,lo
Cuedts,DMCC8033964,wave2,baseline,InConInc,2,2,1,949,59,hi,hi
Cuedts,DMCC8033964,wave2,baseline,ConNoInc,1,1,1,701,60,,lo
Cuedts,DMCC8033964,wave2,baseline,ConNoInc,2,2,1,815,61,,lo
Cuedts,DMCC8033964,wave2,baseline,ConNoInc,2,2,1,648,62,,lo
Cuedts,DMCC8033964,wave2,baseline,ConInc,1,1,1,1480,63,lo,lo
Cuedts,DMCC8033964,wave2,baseline,InConInc,2,2,1,761,64,hi,hi
Cuedts,DMCC8033964,wave2,baseline,InConInc,2,2,1,747,65,hi,hi
Cuedts,DMCC8033964,wave2,baseline,ConNoInc,1,1,1,666,66,,lo
Cuedts,DMCC8033964,wave2,baseline,ConNoInc,2,2,1,988,67,,lo
Cuedts,DMCC8033964,wave2,baseline,ConNoInc,1,1,1,681,68,,lo
Cuedts,DMCC8033964,wave2,baseline,ConNoInc,2,2,1,747,69,,lo
Cuedts,DMCC8033964,wave2,baseline,InConInc,1,1,1,665,70,hi,hi
Cuedts,DMCC8033964,wave2,baseline,ConNoInc,1,1,1,719,71,,lo
Cuedts,DMCC8033964,wave2,baseline,InConNoInc,2,2,1,861,72,,hi
Cuedts,DMCC8033964,wave2,baseline,ConNoInc,1,1,1,702,73,,lo
Cuedts,DMCC8033964,wave2,baseline,ConNoInc,2,2,1,743,74,,lo
Cuedts,DMCC8033964,wave2,baseline,ConNoInc,1,1,1,948,75,,lo
Cuedts,DMCC8033964,wave2,baseline,InConInc,2,2,1,1017,76,hi,hi
Cuedts,DMCC8033964,wave2,baseline,ConNoInc,1,1,1,701,77,,lo
Cuedts,DMCC8033964,wave2,baseline,ConNoInc,2,2,1,698,78,,lo
Cuedts,DMCC8033964,wave2,baseline,ConInc,1,1,1,699,79,lo,lo
Cuedts,DMCC8033964,wave2,baseline,ConNoInc,2,2,1,671,80,,lo
Cuedts,DMCC8033964,wave2,baseline,ConNoInc,2,2,1,734,81,,lo
Cuedts,DMCC8033964,wave2,baseline,InConNoInc,1,1,1,633,82,,hi
Cuedts,DMCC8033964,wave2,baseline,InConInc,1,1,1,653,83,hi,hi
Cuedts,DMCC8033964,wave2,baseline,ConInc,2,2,1,777,84,lo,lo
Cuedts,DMCC8033964,wave2,baseline,InConInc,1,1,1,714,85,hi,hi
Cuedts,DMCC8033964,wave2,baseline,ConNoInc,1,1,1,617,86,,lo
Cuedts,DMCC8033964,wave2,baseline,ConNoInc,1,1,1,689,87,,lo
Cuedts,DMCC8033964,wave2,baseline,InConNoInc,2,2,1,737,88,,hi
Cuedts,DMCC8033964,wave2,baseline,ConNoInc,1,1,1,721,89,,lo
Cuedts,DMCC8033964,wave2,baseline,InConInc,1,1,1,663,90,hi,hi
Cuedts,DMCC8033964,wave2,baseline,InConInc,1,1,1,669,91,hi,hi
Cuedts,DMCC8033964,wave2,baseline,ConNoInc,1,1,1,540,92,,lo
Cuedts,DMCC8033964,wave2,baseline,InConNoInc,1,1,1,618,93,,hi
Cuedts,DMCC8033964,wave2,baseline,ConNoInc,2,2,1,702,94,,lo
Cuedts,DMCC8033964,wave2,baseline,ConNoInc,2,2,1,622,95,,lo
Cuedts,DMCC8033964,wave2,baseline,ConNoInc,2,2,1,586,96,,lo
Cuedts,DMCC8033964,wave2,baseline,InConInc,2,2,1,726,97,hi,hi
Cuedts,DMCC8033964,wave2,baseline,InConNoInc,2,2,1,651,98,,hi
Cuedts,DMCC8033964,wave2,baseline,ConNoInc,2,2,1,658,99,,lo
Cuedts,DMCC8033964,wave2,baseline,InConInc,2,2,1,944,100,hi,hi
Cuedts,DMCC8033964,wave2,baseline,InConInc,2,2,1,917,101,hi,hi
Cuedts,DMCC8033964,wave2,baseline,ConNoInc,2,2,1,720,102,,lo
Cuedts,DMCC8033964,wave2,baseline,ConNoInc,1,1,1,855,103,,lo
Cuedts,DMCC8033964,wave2,baseline,ConInc,2,2,1,693,104,lo,lo
Cuedts,DMCC8033964,wave2,baseline,ConNoInc,2,2,1,918,105,,lo
Cuedts,DMCC8033964,wave2,baseline,ConNoInc,1,1,1,876,106,,lo
Cuedts,DMCC8033964,wave2,baseline,ConNoInc,1,1,1,784,107,,lo
Cuedts,DMCC8033964,wave2,baseline,InConInc,1,1,1,856,108,hi,hi
Cuedts,DMCC8033964,wave2,proactive,ConNoInc,2,2,1,686,1,,lo
Cuedts,DMCC8033964,wave2,proactive,ConNoInc,2,2,1,455,2,,lo
Cuedts,DMCC8033964,wave2,proactive,ConInc,1,2,0,439,3,lo,lo
Cuedts,DMCC8033964,wave2,proactive,InConInc,1,1,1,477,4,hi,hi
Cuedts,DMCC8033964,wave2,proactive,InConInc,1,1,1,459,5,hi,hi
Cuedts,DMCC8033964,wave2,proactive,ConNoInc,2,2,1,640,6,,lo
Cuedts,DMCC8033964,wave2,proactive,InConInc,1,1,1,470,7,hi,hi
Cuedts,DMCC8033964,wave2,proactive,ConNoInc,2,2,1,589,8,,lo
Cuedts,DMCC8033964,wave2,proactive,ConNoInc,2,2,1,519,9,,lo
Cuedts,DMCC8033964,wave2,proactive,ConInc,1,1,1,488,10,lo,lo
Cuedts,DMCC8033964,wave2,proactive,ConNoInc,1,1,1,488,11,,lo
Cuedts,DMCC8033964,wave2,proactive,InConNoInc,1,1,1,633,12,,hi
Cuedts,DMCC8033964,wave2,proactive,ConNoInc,1,1,1,409,13,,lo
Cuedts,DMCC8033964,wave2,proactive,ConNoInc,1,1,1,401,14,,lo
Cuedts,DMCC8033964,wave2,proactive,ConNoInc,1,1,1,462,15,,lo
Cuedts,DMCC8033964,wave2,proactive,ConNoInc,2,2,1,560,16,,lo
Cuedts,DMCC8033964,wave2,proactive,InConNoInc,1,1,1,478,17,,hi
Cuedts,DMCC8033964,wave2,proactive,InConInc,2,2,1,588,18,hi,hi
Cuedts,DMCC8033964,wave2,proactive,ConNoInc,1,1,1,467,19,,lo
Cuedts,DMCC8033964,wave2,proactive,ConInc,2,2,1,527,20,lo,lo
Cuedts,DMCC8033964,wave2,proactive,ConNoInc,2,2,1,509,21,,lo
Cuedts,DMCC8033964,wave2,proactive,ConNoInc,1,1,1,471,22,,lo
Cuedts,DMCC8033964,wave2,proactive,ConNoInc,1,1,1,565,23,,lo
Cuedts,DMCC8033964,wave2,proactive,InConInc,2,2,1,574,24,hi,hi
Cuedts,DMCC8033964,wave2,proactive,InConInc,1,1,1,457,25,hi,hi
Cuedts,DMCC8033964,wave2,proactive,InConNoInc,2,2,1,504,26,,hi
Cuedts,DMCC8033964,wave2,proactive,ConNoInc,2,2,1,520,27,,lo
Cuedts,DMCC8033964,wave2,proactive,ConNoInc,2,2,1,530,28,,lo
Cuedts,DMCC8033964,wave2,proactive,InConNoInc,2,2,1,511,29,,hi
Cuedts,DMCC8033964,wave2,proactive,ConNoInc,1,1,1,604,30,,lo
Cuedts,DMCC8033964,wave2,proactive,ConNoInc,1,1,1,468,31,,lo
Cuedts,DMCC8033964,wave2,proactive,InConInc,2,2,1,449,32,hi,hi
Cuedts,DMCC8033964,wave2,proactive,InConInc,2,2,1,532,33,hi,hi
Cuedts,DMCC8033964,wave2,proactive,InConInc,2,2,1,480,34,hi,hi
Cuedts,DMCC8033964,wave2,proactive,ConNoInc,2,2,1,522,35,,lo
Cuedts,DMCC8033964,wave2,proactive,ConNoInc,1,1,1,536,36,,lo
Cuedts,DMCC8033964,wave2,proactive,ConInc,2,2,1,475,37,lo,lo
Cuedts,DMCC8033964,wave2,proactive,ConNoInc,1,1,1,571,38,,lo
Cuedts,DMCC8033964,wave2,proactive,InConInc,2,2,1,500,39,hi,hi
Cuedts,DMCC8033964,wave2,proactive,ConNoInc,2,2,1,518,40,,lo
Cuedts,DMCC8033964,wave2,proactive,InConInc,1,1,1,516,41,hi,hi
Cuedts,DMCC8033964,wave2,proactive,ConNoInc,2,2,1,526,42,,lo
Cuedts,DMCC8033964,wave2,proactive,InConInc,2,2,1,512,43,hi,hi
Cuedts,DMCC8033964,wave2,proactive,ConNoInc,1,1,1,465,44,,lo
Cuedts,DMCC8033964,wave2,proactive,InConInc,1,1,1,517,45,hi,hi
Cuedts,DMCC8033964,wave2,proactive,ConNoInc,2,2,1,567,46,,lo
Cuedts,DMCC8033964,wave2,proactive,ConNoInc,1,1,1,834,47,,lo
Cuedts,DMCC8033964,wave2,proactive,ConNoInc,1,1,1,441,48,,lo
Cuedts,DMCC8033964,wave2,proactive,ConNoInc,2,2,1,541,49,,lo
Cuedts,DMCC8033964,wave2,proactive,ConNoInc,1,1,1,554,50,,lo
Cuedts,DMCC8033964,wave2,proactive,InConInc,1,1,1,561,51,hi,hi
Cuedts,DMCC8033964,wave2,proactive,ConNoInc,2,2,1,509,52,,lo
Cuedts,DMCC8033964,wave2,proactive,ConNoInc,1,1,1,546,53,,lo
Cuedts,DMCC8033964,wave2,proactive,InConNoInc,2,2,1,624,54,,hi
Cuedts,DMCC8033964,wave2,proactive,InConInc,2,2,1,513,55,hi,hi
Cuedts,DMCC8033964,wave2,proactive,InConNoInc,2,2,1,502,56,,hi
Cuedts,DMCC8033964,wave2,proactive,InConInc,1,1,1,609,57,hi,hi
Cuedts,DMCC8033964,wave2,proactive,ConNoInc,2,2,1,541,58,,lo
Cuedts,DMCC8033964,wave2,proactive,ConNoInc,2,2,1,617,59,,lo
Cuedts,DMCC8033964,wave2,proactive,InConInc,2,2,1,509,60,hi,hi
Cuedts,DMCC8033964,wave2,proactive,ConNoInc,2,2,1,572,61,,lo
Cuedts,DMCC8033964,wave2,proactive,InConInc,2,2,1,500,62,hi,hi
Cuedts,DMCC8033964,wave2,proactive,ConNoInc,1,1,1,508,63,,lo
Cuedts,DMCC8033964,wave2,proactive,ConNoInc,2,1,0,555,64,,lo
Cuedts,DMCC8033964,wave2,proactive,InConInc,1,1,1,482,65,hi,hi
Cuedts,DMCC8033964,wave2,proactive,ConNoInc,2,2,1,600,66,,lo
Cuedts,DMCC8033964,wave2,proactive,ConNoInc,1,1,1,565,67,,lo
Cuedts,DMCC8033964,wave2,proactive,ConInc,1,1,1,494,68,lo,lo
Cuedts,DMCC8033964,wave2,proactive,ConNoInc,1,1,1,567,69,,lo
Cuedts,DMCC8033964,wave2,proactive,ConNoInc,1,1,1,531,70,,lo
Cuedts,DMCC8033964,wave2,proactive,ConNoInc,2,2,1,571,71,,lo
Cuedts,DMCC8033964,wave2,proactive,ConNoInc,1,1,1,669,72,,lo
Cuedts,DMCC8033964,wave2,proactive,ConNoInc,1,1,1,561,73,,lo
Cuedts,DMCC8033964,wave2,proactive,ConInc,2,2,1,525,74,lo,lo
Cuedts,DMCC8033964,wave2,proactive,InConInc,1,1,1,712,75,hi,hi
Cuedts,DMCC8033964,wave2,proactive,ConNoInc,1,1,1,480,76,,lo
Cuedts,DMCC8033964,wave2,proactive,ConNoInc,2,2,1,523,77,,lo
Cuedts,DMCC8033964,wave2,proactive,ConNoInc,1,1,1,512,78,,lo
Cuedts,DMCC8033964,wave2,proactive,InConInc,1,1,1,506,79,hi,hi
Cuedts,DMCC8033964,wave2,proactive,InConNoInc,2,2,1,527,80,,hi
Cuedts,DMCC8033964,wave2,proactive,ConNoInc,2,2,1,665,81,,lo
Cuedts,DMCC8033964,wave2,proactive,ConNoInc,1,1,1,493,82,,lo
Cuedts,DMCC8033964,wave2,proactive,InConNoInc,1,1,1,510,83,,hi
Cuedts,DMCC8033964,wave2,proactive,InConInc,1,1,1,542,84,hi,hi
Cuedts,DMCC8033964,wave2,proactive,ConInc,1,1,1,614,85,lo,lo
Cuedts,DMCC8033964,wave2,proactive,ConNoInc,2,2,1,513,86,,lo
Cuedts,DMCC8033964,wave2,proactive,InConInc,2,2,1,526,87,hi,hi
Cuedts,DMCC8033964,wave2,proactive,ConNoInc,1,1,1,809,88,,lo
Cuedts,DMCC8033964,wave2,proactive,ConNoInc,1,1,1,502,89,,lo
Cuedts,DMCC8033964,wave2,proactive,ConNoInc,2,2,1,766,90,,lo
Cuedts,DMCC8033964,wave2,proactive,InConInc,1,1,1,480,91,hi,hi
Cuedts,DMCC8033964,wave2,proactive,ConNoInc,1,1,1,553,92,,lo
Cuedts,DMCC8033964,wave2,proactive,InConInc,1,1,1,544,93,hi,hi
Cuedts,DMCC8033964,wave2,proactive,InConInc,2,2,1,552,94,hi,hi
Cuedts,DMCC8033964,wave2,proactive,ConInc,2,2,1,723,95,lo,lo
Cuedts,DMCC8033964,wave2,proactive,ConNoInc,2,2,1,555,96,,lo
Cuedts,DMCC8033964,wave2,proactive,ConNoInc,2,2,1,606,97,,lo
Cuedts,DMCC8033964,wave2,proactive,ConNoInc,1,1,1,526,98,,lo
Cuedts,DMCC8033964,wave2,proactive,InConInc,2,2,1,553,99,hi,hi
Cuedts,DMCC8033964,wave2,proactive,ConNoInc,2,2,1,536,100,,lo
Cuedts,DMCC8033964,wave2,proactive,ConNoInc,2,2,1,558,101,,lo
Cuedts,DMCC8033964,wave2,proactive,InConInc,2,2,1,585,102,hi,hi
Cuedts,DMCC8033964,wave2,proactive,InConNoInc,2,2,1,588,103,,hi
Cuedts,DMCC8033964,wave2,proactive,ConNoInc,2,2,1,595,104,,lo
Cuedts,DMCC8033964,wave2,proactive,ConNoInc,2,2,1,586,105,,lo
Cuedts,DMCC8033964,wave2,proactive,ConNoInc,1,1,1,601,106,,lo
Cuedts,DMCC8033964,wave2,proactive,ConNoInc,1,1,1,578,107,,lo
Cuedts,DMCC8033964,wave2,proactive,InConNoInc,1,1,1,628,108,,hi
Cuedts,DMCC8033964,wave2,reactive,ConNoInc,1,1,1,510,1,,lo
Cuedts,DMCC8033964,wave2,reactive,InConNoInc,1,1,1,525,2,,hi
Cuedts,DMCC8033964,wave2,reactive,ConNoInc,2,2,1,573,3,,lo
Cuedts,DMCC8033964,wave2,reactive,InConInc,1,1,1,644,4,hi,hi
Cuedts,DMCC8033964,wave2,reactive,ConInc,1,1,1,590,5,lo,lo
Cuedts,DMCC8033964,wave2,reactive,InConNoInc,1,1,1,647,6,,hi
Cuedts,DMCC8033964,wave2,reactive,ConNoInc,2,2,1,589,7,,lo
Cuedts,DMCC8033964,wave2,reactive,InConInc,1,1,1,562,8,hi,hi
Cuedts,DMCC8033964,wave2,reactive,ConNoInc,2,2,1,564,9,,lo
Cuedts,DMCC8033964,wave2,reactive,ConNoInc,1,1,1,481,10,,lo
Cuedts,DMCC8033964,wave2,reactive,ConNoInc,2,2,1,542,11,,lo
Cuedts,DMCC8033964,wave2,reactive,InConInc,2,2,1,739,12,hi,hi
Cuedts,DMCC8033964,wave2,reactive,ConNoInc,2,2,1,790,13,,lo
Cuedts,DMCC8033964,wave2,reactive,ConNoInc,2,2,1,551,14,,lo
Cuedts,DMCC8033964,wave2,reactive,InConInc,1,1,1,500,15,hi,hi
Cuedts,DMCC8033964,wave2,reactive,ConNoInc,1,1,1,499,16,,lo
Cuedts,DMCC8033964,wave2,reactive,ConInc,1,1,1,530,17,lo,lo
Cuedts,DMCC8033964,wave2,reactive,ConNoInc,1,1,1,557,18,,lo
Cuedts,DMCC8033964,wave2,reactive,InConNoInc,2,2,1,513,19,,hi
Cuedts,DMCC8033964,wave2,reactive,ConNoInc,2,2,1,717,20,,lo
Cuedts,DMCC8033964,wave2,reactive,InConInc,2,2,1,656,21,hi,hi
Cuedts,DMCC8033964,wave2,reactive,ConNoInc,2,2,1,557,22,,lo
Cuedts,DMCC8033964,wave2,reactive,ConNoInc,1,1,1,550,23,,lo
Cuedts,DMCC8033964,wave2,reactive,ConNoInc,1,1,1,572,24,,lo
Cuedts,DMCC8033964,wave2,reactive,InConInc,2,2,1,561,25,hi,hi
Cuedts,DMCC8033964,wave2,reactive,InConInc,1,1,1,546,26,hi,hi
Cuedts,DMCC8033964,wave2,reactive,ConNoInc,1,1,1,668,27,,lo
Cuedts,DMCC8033964,wave2,reactive,ConNoInc,2,2,1,596,28,,lo
Cuedts,DMCC8033964,wave2,reactive,ConNoInc,1,1,1,566,29,,lo
Cuedts,DMCC8033964,wave2,reactive,ConNoInc,1,1,1,575,30,,lo
Cuedts,DMCC8033964,wave2,reactive,ConInc,2,2,1,567,31,lo,lo
Cuedts,DMCC8033964,wave2,reactive,ConNoInc,2,2,1,534,32,,lo
Cuedts,DMCC8033964,wave2,reactive,ConNoInc,1,1,1,511,33,,lo
Cuedts,DMCC8033964,wave2,reactive,InConInc,2,2,1,758,34,hi,hi
Cuedts,DMCC8033964,wave2,reactive,InConNoInc,2,2,1,561,35,,hi
Cuedts,DMCC8033964,wave2,reactive,InConInc,2,2,1,577,36,hi,hi
Cuedts,DMCC8033964,wave2,reactive,ConNoInc,2,2,1,569,37,,lo
Cuedts,DMCC8033964,wave2,reactive,InConNoInc,2,2,1,526,38,,hi
Cuedts,DMCC8033964,wave2,reactive,InConInc,2,2,1,629,39,hi,hi
Cuedts,DMCC8033964,wave2,reactive,InConInc,1,1,1,514,40,hi,hi
Cuedts,DMCC8033964,wave2,reactive,ConNoInc,2,2,1,554,41,,lo
Cuedts,DMCC8033964,wave2,reactive,ConNoInc,1,1,1,606,42,,lo
Cuedts,DMCC8033964,wave2,reactive,ConNoInc,2,2,1,695,43,,lo
Cuedts,DMCC8033964,wave2,reactive,InConInc,2,2,1,725,44,hi,hi
Cuedts,DMCC8033964,wave2,reactive,ConNoInc,2,2,1,857,45,,lo
Cuedts,DMCC8033964,wave2,reactive,ConInc,2,2,1,675,46,lo,lo
Cuedts,DMCC8033964,wave2,reactive,ConNoInc,1,1,1,583,47,,lo
Cuedts,DMCC8033964,wave2,reactive,InConInc,1,1,1,613,48,hi,hi
Cuedts,DMCC8033964,wave2,reactive,ConNoInc,1,1,1,590,49,,lo
Cuedts,DMCC8033964,wave2,reactive,ConNoInc,1,1,1,586,50,,lo
Cuedts,DMCC8033964,wave2,reactive,ConNoInc,1,1,1,571,51,,lo
Cuedts,DMCC8033964,wave2,reactive,ConNoInc,1,1,1,597,52,,lo
Cuedts,DMCC8033964,wave2,reactive,ConNoInc,2,2,1,556,53,,lo
Cuedts,DMCC8033964,wave2,reactive,InConInc,1,1,1,597,54,hi,hi
Cuedts,DMCC8033964,wave2,reactive,ConInc,1,1,1,665,55,lo,lo
Cuedts,DMCC8033964,wave2,reactive,InConInc,1,1,1,569,56,hi,hi
Cuedts,DMCC8033964,wave2,reactive,ConNoInc,1,1,1,512,57,,lo
Cuedts,DMCC8033964,wave2,reactive,ConNoInc,2,2,1,682,58,,lo
Cuedts,DMCC8033964,wave2,reactive,ConNoInc,1,1,1,535,59,,lo
Cuedts,DMCC8033964,wave2,reactive,ConNoInc,1,1,1,588,60,,lo
Cuedts,DMCC8033964,wave2,reactive,ConNoInc,2,2,1,570,61,,lo
Cuedts,DMCC8033964,wave2,reactive,ConNoInc,2,2,1,598,62,,lo
Cuedts,DMCC8033964,wave2,reactive,InConInc,2,2,1,608,63,hi,hi
Cuedts,DMCC8033964,wave2,reactive,ConNoInc,1,1,1,609,64,,lo
Cuedts,DMCC8033964,wave2,reactive,ConNoInc,2,2,1,577,65,,lo
Cuedts,DMCC8033964,wave2,reactive,InConInc,2,2,1,652,66,hi,hi
Cuedts,DMCC8033964,wave2,reactive,ConNoInc,2,2,1,766,67,,lo
Cuedts,DMCC8033964,wave2,reactive,ConNoInc,1,1,1,575,68,,lo
Cuedts,DMCC8033964,wave2,reactive,ConNoInc,2,2,1,1011,69,,lo
Cuedts,DMCC8033964,wave2,reactive,InConInc,1,1,1,698,70,hi,hi
Cuedts,DMCC8033964,wave2,reactive,InConNoInc,2,2,1,603,71,,hi
Cuedts,DMCC8033964,wave2,reactive,InConInc,2,2,1,588,72,hi,hi
Cuedts,DMCC8033964,wave2,reactive,ConNoInc,1,1,1,568,73,,lo
Cuedts,DMCC8033964,wave2,reactive,ConInc,2,2,1,776,74,lo,lo
Cuedts,DMCC8033964,wave2,reactive,ConNoInc,2,2,1,662,75,,lo
Cuedts,DMCC8033964,wave2,reactive,ConNoInc,2,2,1,589,76,,lo
Cuedts,DMCC8033964,wave2,reactive,InConNoInc,2,2,1,851,77,,hi
Cuedts,DMCC8033964,wave2,reactive,ConNoInc,1,1,1,567,78,,lo
Cuedts,DMCC8033964,wave2,reactive,ConNoInc,2,2,1,862,79,,lo
Cuedts,DMCC8033964,wave2,reactive,InConInc,2,2,1,657,80,hi,hi
Cuedts,DMCC8033964,wave2,reactive,ConNoInc,1,1,1,579,81,,lo
Cuedts,DMCC8033964,wave2,reactive,InConNoInc,1,1,1,653,82,,hi
Cuedts,DMCC8033964,wave2,reactive,InConInc,1,1,1,592,83,hi,hi
Cuedts,DMCC8033964,wave2,reactive,ConNoInc,1,1,1,617,84,,lo
Cuedts,DMCC8033964,wave2,reactive,ConNoInc,1,1,1,667,85,,lo
Cuedts,DMCC8033964,wave2,reactive,InConInc,1,1,1,855,86,hi,hi
Cuedts,DMCC8033964,wave2,reactive,ConInc,1,1,1,743,87,lo,lo
Cuedts,DMCC8033964,wave2,reactive,ConNoInc,2,2,1,1127,88,,lo
Cuedts,DMCC8033964,wave2,reactive,ConNoInc,1,1,1,627,89,,lo
Cuedts,DMCC8033964,wave2,reactive,InConInc,1,1,1,615,90,hi,hi
Cuedts,DMCC8033964,wave2,reactive,ConInc,2,2,1,690,91,lo,lo
Cuedts,DMCC8033964,wave2,reactive,InConInc,2,2,1,627,92,hi,hi
Cuedts,DMCC8033964,wave2,reactive,ConNoInc,1,1,1,572,93,,lo
Cuedts,DMCC8033964,wave2,reactive,ConNoInc,1,1,1,505,94,,lo
Cuedts,DMCC8033964,wave2,reactive,ConNoInc,2,2,1,564,95,,lo
Cuedts,DMCC8033964,wave2,reactive,InConNoInc,2,2,1,692,96,,hi
Cuedts,DMCC8033964,wave2,reactive,InConNoInc,1,2,0,636,97,,hi
Cuedts,DMCC8033964,wave2,reactive,InConInc,1,1,1,654,98,hi,hi
Cuedts,DMCC8033964,wave2,reactive,InConInc,2,2,1,843,99,hi,hi
Cuedts,DMCC8033964,wave2,reactive,ConNoInc,2,2,1,669,100,,lo
Cuedts,DMCC8033964,wave2,reactive,ConNoInc,1,1,1,645,101,,lo
Cuedts,DMCC8033964,wave2,reactive,ConNoInc,2,2,1,629,102,,lo
Cuedts,DMCC8033964,wave2,reactive,InConInc,1,1,1,625,103,hi,hi
Cuedts,DMCC8033964,wave2,reactive,ConNoInc,1,1,1,633,104,,lo
Cuedts,DMCC8033964,wave2,reactive,InConInc,2,2,1,677,105,hi,hi
Cuedts,DMCC8033964,wave2,reactive,ConNoInc,2,2,1,810,106,,lo
Cuedts,DMCC8033964,wave2,reactive,ConNoInc,2,2,1,718,107,,lo
Cuedts,DMCC8033964,wave2,reactive,ConNoInc,2,2,1,625,108,,lo
Cuedts,DMCC8033964,wave3,baseline,InConInc,1,1,1,575,1,hi,hi
Cuedts,DMCC8033964,wave3,baseline,ConNoInc,1,1,1,563,2,,lo
Cuedts,DMCC8033964,wave3,baseline,ConNoInc,2,2,1,750,3,,lo
Cuedts,DMCC8033964,wave3,baseline,InConNoInc,1,1,1,645,4,,hi
Cuedts,DMCC8033964,wave3,baseline,ConNoInc,2,2,1,637,5,,lo
Cuedts,DMCC8033964,wave3,baseline,InConNoInc,1,1,1,642,6,,hi
Cuedts,DMCC8033964,wave3,baseline,ConNoInc,1,1,1,588,7,,lo
Cuedts,DMCC8033964,wave3,baseline,ConNoInc,2,2,1,662,8,,lo
Cuedts,DMCC8033964,wave3,baseline,InConInc,2,2,1,610,9,hi,hi
Cuedts,DMCC8033964,wave3,baseline,ConNoInc,2,2,1,600,10,,lo
Cuedts,DMCC8033964,wave3,baseline,ConInc,1,1,1,861,11,lo,lo
Cuedts,DMCC8033964,wave3,baseline,ConNoInc,1,1,1,554,12,,lo
Cuedts,DMCC8033964,wave3,baseline,InConInc,1,1,1,655,13,hi,hi
Cuedts,DMCC8033964,wave3,baseline,ConNoInc,2,2,1,737,14,,lo
Cuedts,DMCC8033964,wave3,baseline,ConInc,1,1,1,695,15,lo,lo
Cuedts,DMCC8033964,wave3,baseline,ConNoInc,2,2,1,798,16,,lo
Cuedts,DMCC8033964,wave3,baseline,ConNoInc,1,1,1,576,17,,lo
Cuedts,DMCC8033964,wave3,baseline,InConInc,1,1,1,745,18,hi,hi
Cuedts,DMCC8033964,wave3,baseline,ConNoInc,1,1,1,728,19,,lo
Cuedts,DMCC8033964,wave3,baseline,InConInc,1,1,1,656,20,hi,hi
Cuedts,DMCC8033964,wave3,baseline,InConInc,2,2,1,610,21,hi,hi
Cuedts,DMCC8033964,wave3,baseline,ConNoInc,1,1,1,582,22,,lo
Cuedts,DMCC8033964,wave3,baseline,ConNoInc,1,1,1,686,23,,lo
Cuedts,DMCC8033964,wave3,baseline,ConNoInc,1,1,1,650,24,,lo
Cuedts,DMCC8033964,wave3,baseline,InConNoInc,2,2,1,1034,25,,hi
Cuedts,DMCC8033964,wave3,baseline,ConInc,2,2,1,698,26,lo,lo
Cuedts,DMCC8033964,wave3,baseline,InConInc,2,2,1,678,27,hi,hi
Cuedts,DMCC8033964,wave3,baseline,InConNoInc,2,2,1,657,28,,hi
Cuedts,DMCC8033964,wave3,baseline,ConNoInc,2,2,1,645,29,,lo
Cuedts,DMCC8033964,wave3,baseline,ConNoInc,2,2,1,626,30,,lo
Cuedts,DMCC8033964,wave3,baseline,InConInc,2,2,1,603,31,hi,hi
Cuedts,DMCC8033964,wave3,baseline,ConNoInc,1,1,1,561,32,,lo
Cuedts,DMCC8033964,wave3,baseline,InConInc,2,2,1,612,33,hi,hi
Cuedts,DMCC8033964,wave3,baseline,ConNoInc,1,1,1,709,34,,lo
Cuedts,DMCC8033964,wave3,baseline,ConNoInc,2,2,1,506,35,,lo
Cuedts,DMCC8033964,wave3,baseline,ConNoInc,2,2,1,574,36,,lo
Cuedts,DMCC8033964,wave3,baseline,ConNoInc,2,2,1,711,37,,lo
Cuedts,DMCC8033964,wave3,baseline,InConInc,1,1,1,623,38,hi,hi
Cuedts,DMCC8033964,wave3,baseline,InConInc,1,1,1,601,39,hi,hi
Cuedts,DMCC8033964,wave3,baseline,ConNoInc,2,2,1,703,40,,lo
Cuedts,DMCC8033964,wave3,baseline,ConNoInc,1,1,1,931,41,,lo
Cuedts,DMCC8033964,wave3,baseline,ConNoInc,1,1,1,649,42,,lo
Cuedts,DMCC8033964,wave3,baseline,InConInc,2,2,1,616,43,hi,hi
Cuedts,DMCC8033964,wave3,baseline,ConNoInc,1,1,1,517,44,,lo
Cuedts,DMCC8033964,wave3,baseline,InConInc,1,1,1,650,45,hi,hi
Cuedts,DMCC8033964,wave3,baseline,ConNoInc,1,1,1,673,46,,lo
Cuedts,DMCC8033964,wave3,baseline,InConNoInc,2,2,1,693,47,,hi
Cuedts,DMCC8033964,wave3,baseline,ConNoInc,2,2,1,742,48,,lo
Cuedts,DMCC8033964,wave3,baseline,ConInc,2,2,1,760,49,lo,lo
Cuedts,DMCC8033964,wave3,baseline,ConNoInc,1,1,1,554,50,,lo
Cuedts,DMCC8033964,wave3,baseline,ConNoInc,2,2,1,556,51,,lo
Cuedts,DMCC8033964,wave3,baseline,ConNoInc,2,2,1,627,52,,lo
Cuedts,DMCC8033964,wave3,baseline,InConInc,2,2,1,686,53,hi,hi
Cuedts,DMCC8033964,wave3,baseline,ConNoInc,1,1,1,806,54,,lo
Cuedts,DMCC8033964,wave3,baseline,ConNoInc,2,2,1,570,55,,lo
Cuedts,DMCC8033964,wave3,baseline,ConNoInc,2,2,1,559,56,,lo
Cuedts,DMCC8033964,wave3,baseline,ConNoInc,2,2,1,550,57,,lo
Cuedts,DMCC8033964,wave3,baseline,InConInc,1,1,1,619,58,hi,hi
Cuedts,DMCC8033964,wave3,baseline,ConNoInc,1,1,1,607,59,,lo
Cuedts,DMCC8033964,wave3,baseline,ConNoInc,1,1,1,551,60,,lo
Cuedts,DMCC8033964,wave3,baseline,ConNoInc,2,2,1,592,61,,lo
Cuedts,DMCC8033964,wave3,baseline,ConNoInc,1,1,1,559,62,,lo
Cuedts,DMCC8033964,wave3,baseline,InConInc,2,2,1,538,63,hi,hi
Cuedts,DMCC8033964,wave3,baseline,InConInc,1,1,1,610,64,hi,hi
Cuedts,DMCC8033964,wave3,baseline,InConNoInc,2,2,1,598,65,,hi
Cuedts,DMCC8033964,wave3,baseline,InConInc,2,2,1,651,66,hi,hi
Cuedts,DMCC8033964,wave3,baseline,ConNoInc,1,1,1,753,67,,lo
Cuedts,DMCC8033964,wave3,baseline,InConInc,2,2,1,598,68,hi,hi
Cuedts,DMCC8033964,wave3,baseline,ConNoInc,2,2,1,529,69,,lo
Cuedts,DMCC8033964,wave3,baseline,ConInc,1,1,1,816,70,lo,lo
Cuedts,DMCC8033964,wave3,baseline,ConNoInc,2,2,1,804,71,,lo
Cuedts,DMCC8033964,wave3,baseline,ConNoInc,1,1,1,613,72,,lo
Cuedts,DMCC8033964,wave3,baseline,InConNoInc,1,1,1,565,73,,hi
Cuedts,DMCC8033964,wave3,baseline,ConNoInc,2,2,1,602,74,,lo
Cuedts,DMCC8033964,wave3,baseline,ConInc,1,1,1,714,75,lo,lo
Cuedts,DMCC8033964,wave3,baseline,ConNoInc,1,1,1,671,76,,lo
Cuedts,DMCC8033964,wave3,baseline,ConNoInc,2,2,1,659,77,,lo
Cuedts,DMCC8033964,wave3,baseline,ConNoInc,1,1,1,643,78,,lo
Cuedts,DMCC8033964,wave3,baseline,InConInc,2,2,1,677,79,hi,hi
Cuedts,DMCC8033964,wave3,baseline,InConInc,1,1,1,578,80,hi,hi
Cuedts,DMCC8033964,wave3,baseline,InConNoInc,2,2,1,631,81,,hi
Cuedts,DMCC8033964,wave3,baseline,InConInc,1,1,1,653,82,hi,hi
Cuedts,DMCC8033964,wave3,baseline,ConNoInc,1,1,1,623,83,,lo
Cuedts,DMCC8033964,wave3,baseline,ConNoInc,2,2,1,706,84,,lo
Cuedts,DMCC8033964,wave3,baseline,ConInc,2,2,1,986,85,lo,lo
Cuedts,DMCC8033964,wave3,baseline,ConNoInc,1,1,1,750,86,,lo
Cuedts,DMCC8033964,wave3,baseline,ConNoInc,1,1,1,982,87,,lo
Cuedts,DMCC8033964,wave3,baseline,InConInc,1,1,1,668,88,hi,hi
Cuedts,DMCC8033964,wave3,baseline,ConNoInc,2,2,1,630,89,,lo
Cuedts,DMCC8033964,wave3,baseline,ConNoInc,1,1,1,584,90,,lo
Cuedts,DMCC8033964,wave3,baseline,ConNoInc,2,2,1,611,91,,lo
Cuedts,DMCC8033964,wave3,baseline,ConNoInc,2,2,1,605,92,,lo
Cuedts,DMCC8033964,wave3,baseline,InConInc,1,1,1,605,93,hi,hi
Cuedts,DMCC8033964,wave3,baseline,ConNoInc,2,2,1,575,94,,lo
Cuedts,DMCC8033964,wave3,baseline,ConNoInc,1,1,1,702,95,,lo
Cuedts,DMCC8033964,wave3,baseline,InConNoInc,2,2,1,669,96,,hi
Cuedts,DMCC8033964,wave3,baseline,InConInc,1,1,1,628,97,hi,hi
Cuedts,DMCC8033964,wave3,baseline,ConNoInc,1,1,1,580,98,,lo
Cuedts,DMCC8033964,wave3,baseline,InConInc,2,2,1,682,99,hi,hi
Cuedts,DMCC8033964,wave3,baseline,InConInc,2,2,1,567,100,hi,hi
Cuedts,DMCC8033964,wave3,baseline,InConNoInc,1,1,1,619,101,,hi
Cuedts,DMCC8033964,wave3,baseline,InConInc,2,2,1,619,102,hi,hi
Cuedts,DMCC8033964,wave3,baseline,ConNoInc,2,2,1,689,103,,lo
Cuedts,DMCC8033964,wave3,baseline,ConNoInc,2,2,1,658,104,,lo
Cuedts,DMCC8033964,wave3,baseline,ConNoInc,2,2,1,529,105,,lo
Cuedts,DMCC8033964,wave3,baseline,ConNoInc,1,1,1,746,106,,lo
Cuedts,DMCC8033964,wave3,baseline,ConNoInc,1,1,1,519,107,,lo
Cuedts,DMCC8033964,wave3,baseline,ConInc,2,2,1,680,108,lo,lo
Cuedts,DMCC8033964,wave3,proactive,ConNoInc,1,1,1,752,1,,lo
Cuedts,DMCC8033964,wave3,proactive,ConNoInc,1,1,1,526,2,,lo
Cuedts,DMCC8033964,wave3,proactive,InConInc,2,2,1,683,3,hi,hi
Cuedts,DMCC8033964,wave3,proactive,ConNoInc,1,1,1,445,4,,lo
Cuedts,DMCC8033964,wave3,proactive,ConNoInc,1,1,1,488,5,,lo
Cuedts,DMCC8033964,wave3,proactive,ConNoInc,2,2,1,552,6,,lo
Cuedts,DMCC8033964,wave3,proactive,ConNoInc,2,2,1,675,7,,lo
Cuedts,DMCC8033964,wave3,proactive,ConNoInc,2,2,1,505,8,,lo
Cuedts,DMCC8033964,wave3,proactive,InConInc,1,2,0,514,9,hi,hi
Cuedts,DMCC8033964,wave3,proactive,ConInc,1,1,1,527,10,lo,lo
Cuedts,DMCC8033964,wave3,proactive,ConNoInc,2,2,1,585,11,,lo
Cuedts,DMCC8033964,wave3,proactive,InConNoInc,1,1,1,419,12,,hi
Cuedts,DMCC8033964,wave3,proactive,ConNoInc,2,2,1,552,13,,lo
Cuedts,DMCC8033964,wave3,proactive,InConNoInc,1,1,1,560,14,,hi
Cuedts,DMCC8033964,wave3,proactive,ConNoInc,2,2,1,607,15,,lo
Cuedts,DMCC8033964,wave3,proactive,InConInc,1,1,1,470,16,hi,hi
Cuedts,DMCC8033964,wave3,proactive,ConInc,1,1,1,586,17,lo,lo
Cuedts,DMCC8033964,wave3,proactive,InConInc,1,1,1,440,18,hi,hi
Cuedts,DMCC8033964,wave3,proactive,ConNoInc,1,1,1,487,19,,lo
Cuedts,DMCC8033964,wave3,proactive,ConNoInc,2,2,1,486,20,,lo
Cuedts,DMCC8033964,wave3,proactive,ConNoInc,1,1,1,488,21,,lo
Cuedts,DMCC8033964,wave3,proactive,ConNoInc,2,2,1,700,22,,lo
Cuedts,DMCC8033964,wave3,proactive,ConNoInc,1,1,1,445,23,,lo
Cuedts,DMCC8033964,wave3,proactive,InConInc,2,2,1,479,24,hi,hi
Cuedts,DMCC8033964,wave3,proactive,InConInc,2,2,1,644,25,hi,hi
Cuedts,DMCC8033964,wave3,proactive,ConNoInc,2,2,1,672,26,,lo
Cuedts,DMCC8033964,wave3,proactive,InConNoInc,2,2,1,748,27,,hi
Cuedts,DMCC8033964,wave3,proactive,ConNoInc,2,2,1,564,28,,lo
Cuedts,DMCC8033964,wave3,proactive,ConInc,2,2,1,553,29,lo,lo
Cuedts,DMCC8033964,wave3,proactive,ConNoInc,1,1,1,438,30,,lo
Cuedts,DMCC8033964,wave3,proactive,ConNoInc,1,1,1,504,31,,lo
Cuedts,DMCC8033964,wave3,proactive,InConInc,2,2,1,458,32,hi,hi
Cuedts,DMCC8033964,wave3,proactive,InConNoInc,2,2,1,549,33,,hi
Cuedts,DMCC8033964,wave3,proactive,InConInc,1,1,1,472,34,hi,hi
Cuedts,DMCC8033964,wave3,proactive,InConInc,2,2,1,458,35,hi,hi
Cuedts,DMCC8033964,wave3,proactive,ConNoInc,1,1,1,531,36,,lo
Cuedts,DMCC8033964,wave3,proactive,ConNoInc,2,2,1,581,37,,lo
Cuedts,DMCC8033964,wave3,proactive,ConNoInc,2,2,1,519,38,,lo
Cuedts,DMCC8033964,wave3,proactive,ConNoInc,1,1,1,453,39,,lo
Cuedts,DMCC8033964,wave3,proactive,InConInc,2,2,1,625,40,hi,hi
Cuedts,DMCC8033964,wave3,proactive,InConInc,1,1,1,567,41,hi,hi
Cuedts,DMCC8033964,wave3,proactive,InConInc,1,1,1,498,42,hi,hi
Cuedts,DMCC8033964,wave3,proactive,ConNoInc,1,1,1,516,43,,lo
Cuedts,DMCC8033964,wave3,proactive,ConNoInc,1,1,1,590,44,,lo
Cuedts,DMCC8033964,wave3,proactive,ConNoInc,2,2,1,596,45,,lo
Cuedts,DMCC8033964,wave3,proactive,ConNoInc,1,1,1,599,46,,lo
Cuedts,DMCC8033964,wave3,proactive,ConNoInc,1,1,1,703,47,,lo
Cuedts,DMCC8033964,wave3,proactive,ConNoInc,1,1,1,644,48,,lo
Cuedts,DMCC8033964,wave3,proactive,InConInc,2,2,1,471,49,hi,hi
Cuedts,DMCC8033964,wave3,proactive,ConNoInc,2,2,1,614,50,,lo
Cuedts,DMCC8033964,wave3,proactive,ConNoInc,2,2,1,528,51,,lo
Cuedts,DMCC8033964,wave3,proactive,InConNoInc,2,2,1,758,52,,hi
Cuedts,DMCC8033964,wave3,proactive,InConInc,1,2,0,544,53,hi,hi
Cuedts,DMCC8033964,wave3,proactive,ConInc,2,2,1,524,54,lo,lo
Cuedts,DMCC8033964,wave3,proactive,ConNoInc,2,2,1,570,55,,lo
Cuedts,DMCC8033964,wave3,proactive,ConNoInc,2,2,1,652,56,,lo
Cuedts,DMCC8033964,wave3,proactive,InConInc,2,2,1,494,57,hi,hi
Cuedts,DMCC8033964,wave3,proactive,ConNoInc,2,2,1,541,58,,lo
Cuedts,DMCC8033964,wave3,proactive,InConNoInc,2,2,1,621,59,,hi
Cuedts,DMCC8033964,wave3,proactive,ConNoInc,1,1,1,533,60,,lo
Cuedts,DMCC8033964,wave3,proactive,ConNoInc,1,1,1,670,61,,lo
Cuedts,DMCC8033964,wave3,proactive,InConInc,2,2,1,532,62,hi,hi
Cuedts,DMCC8033964,wave3,proactive,ConNoInc,2,2,1,495,63,,lo
Cuedts,DMCC8033964,wave3,proactive,InConInc,1,1,1,668,64,hi,hi
Cuedts,DMCC8033964,wave3,proactive,ConNoInc,1,1,1,558,65,,lo
Cuedts,DMCC8033964,wave3,proactive,ConNoInc,1,1,1,589,66,,lo
Cuedts,DMCC8033964,wave3,proactive,ConNoInc,2,2,1,654,67,,lo
Cuedts,DMCC8033964,wave3,proactive,InConInc,2,2,1,580,68,hi,hi
Cuedts,DMCC8033964,wave3,proactive,ConNoInc,2,2,1,666,69,,lo
Cuedts,DMCC8033964,wave3,proactive,ConInc,1,1,1,513,70,lo,lo
Cuedts,DMCC8033964,wave3,proactive,InConInc,1,1,1,576,71,hi,hi
Cuedts,DMCC8033964,wave3,proactive,ConNoInc,1,1,1,519,72,,lo
Cuedts,DMCC8033964,wave3,proactive,InConInc,1,1,1,543,73,hi,hi
Cuedts,DMCC8033964,wave3,proactive,ConNoInc,1,1,1,447,74,,lo
Cuedts,DMCC8033964,wave3,proactive,ConInc,2,2,1,513,75,lo,lo
Cuedts,DMCC8033964,wave3,proactive,ConNoInc,1,1,1,505,76,,lo
Cuedts,DMCC8033964,wave3,proactive,ConInc,1,1,1,595,77,lo,lo
Cuedts,DMCC8033964,wave3,proactive,InConInc,1,1,1,564,78,hi,hi
Cuedts,DMCC8033964,wave3,proactive,ConNoInc,1,1,1,573,79,,lo
Cuedts,DMCC8033964,wave3,proactive,ConNoInc,1,1,1,574,80,,lo
Cuedts,DMCC8033964,wave3,proactive,InConNoInc,1,1,1,580,81,,hi
Cuedts,DMCC8033964,wave3,proactive,ConNoInc,2,2,1,580,82,,lo
Cuedts,DMCC8033964,wave3,proactive,InConNoInc,2,2,1,569,83,,hi
Cuedts,DMCC8033964,wave3,proactive,InConInc,2,2,1,599,84,hi,hi
Cuedts,DMCC8033964,wave3,proactive,ConNoInc,1,1,1,480,85,,lo
Cuedts,DMCC8033964,wave3,proactive,ConNoInc,2,2,1,557,86,,lo
Cuedts,DMCC8033964,wave3,proactive,ConNoInc,2,2,1,555,87,,lo
Cuedts,DMCC8033964,wave3,proactive,InConInc,1,1,1,520,88,hi,hi
Cuedts,DMCC8033964,wave3,proactive,ConNoInc,2,2,1,567,89,,lo
Cuedts,DMCC8033964,wave3,proactive,ConNoInc,1,1,1,505,90,,lo
Cuedts,DMCC8033964,wave3,proactive,ConNoInc,1,1,1,534,91,,lo
Cuedts,DMCC8033964,wave3,proactive,ConNoInc,1,1,1,520,92,,lo
Cuedts,DMCC8033964,wave3,proactive,ConNoInc,1,2,0,598,93,,lo
Cuedts,DMCC8033964,wave3,proactive,ConNoInc,2,2,1,874,94,,lo
Cuedts,DMCC8033964,wave3,proactive,ConInc,2,2,1,576,95,lo,lo
Cuedts,DMCC8033964,wave3,proactive,ConNoInc,2,2,1,702,96,,lo
Cuedts,DMCC8033964,wave3,proactive,ConNoInc,2,2,1,663,97,,lo
Cuedts,DMCC8033964,wave3,proactive,InConInc,2,2,1,592,98,hi,hi
Cuedts,DMCC8033964,wave3,proactive,InConNoInc,1,1,1,595,99,,hi
Cuedts,DMCC8033964,wave3,proactive,InConNoInc,2,2,1,526,100,,hi
Cuedts,DMCC8033964,wave3,proactive,ConNoInc,2,2,1,616,101,,lo
Cuedts,DMCC8033964,wave3,proactive,InConInc,1,1,1,557,102,hi,hi
Cuedts,DMCC8033964,wave3,proactive,InConInc,2,2,1,581,103,hi,hi
Cuedts,DMCC8033964,wave3,proactive,ConNoInc,1,1,1,541,104,,lo
Cuedts,DMCC8033964,wave3,proactive,InConInc,1,1,1,525,105,hi,hi
Cuedts,DMCC8033964,wave3,proactive,ConNoInc,2,2,1,592,106,,lo
Cuedts,DMCC8033964,wave3,proactive,InConInc,2,2,1,513,107,hi,hi
Cuedts,DMCC8033964,wave3,proactive,ConNoInc,2,2,1,747,108,,lo
Cuedts,DMCC8033964,wave3,reactive,ConNoInc,2,2,1,618,1,,lo
Cuedts,DMCC8033964,wave3,reactive,ConNoInc,1,1,1,579,2,,lo
Cuedts,DMCC8033964,wave3,reactive,InConNoInc,1,1,1,538,3,,hi
Cuedts,DMCC8033964,wave3,reactive,ConNoInc,2,2,1,594,4,,lo
Cuedts,DMCC8033964,wave3,reactive,InConInc,1,1,1,698,5,hi,hi
Cuedts,DMCC8033964,wave3,reactive,ConNoInc,2,2,1,732,6,,lo
Cuedts,DMCC8033964,wave3,reactive,InConInc,1,1,1,936,7,hi,hi
Cuedts,DMCC8033964,wave3,reactive,InConInc,2,2,1,763,8,hi,hi
Cuedts,DMCC8033964,wave3,reactive,ConNoInc,1,1,1,774,9,,lo
Cuedts,DMCC8033964,wave3,reactive,ConNoInc,2,2,1,572,10,,lo
Cuedts,DMCC8033964,wave3,reactive,ConInc,1,1,1,846,11,lo,lo
Cuedts,DMCC8033964,wave3,reactive,ConNoInc,2,2,1,582,12,,lo
Cuedts,DMCC8033964,wave3,reactive,ConNoInc,1,1,1,606,13,,lo
Cuedts,DMCC8033964,wave3,reactive,ConNoInc,2,2,1,574,14,,lo
Cuedts,DMCC8033964,wave3,reactive,ConInc,1,1,1,556,15,lo,lo
Cuedts,DMCC8033964,wave3,reactive,InConNoInc,1,1,1,728,16,,hi
Cuedts,DMCC8033964,wave3,reactive,InConInc,1,1,1,532,17,hi,hi
Cuedts,DMCC8033964,wave3,reactive,ConNoInc,1,1,1,594,18,,lo
Cuedts,DMCC8033964,wave3,reactive,ConNoInc,1,1,1,556,19,,lo
Cuedts,DMCC8033964,wave3,reactive,InConInc,2,2,1,836,20,hi,hi
Cuedts,DMCC8033964,wave3,reactive,InConNoInc,2,2,1,645,21,,hi
Cuedts,DMCC8033964,wave3,reactive,ConInc,2,2,1,633,22,lo,lo
Cuedts,DMCC8033964,wave3,reactive,ConNoInc,1,1,1,635,23,,lo
Cuedts,DMCC8033964,wave3,reactive,InConInc,1,1,1,611,24,hi,hi
Cuedts,DMCC8033964,wave3,reactive,ConNoInc,2,2,1,555,25,,lo
Cuedts,DMCC8033964,wave3,reactive,InConInc,2,2,1,771,26,hi,hi
Cuedts,DMCC8033964,wave3,reactive,ConNoInc,2,2,1,563,27,,lo
Cuedts,DMCC8033964,wave3,reactive,ConNoInc,1,1,1,692,28,,lo
Cuedts,DMCC8033964,wave3,reactive,InConNoInc,2,2,1,631,29,,hi
Cuedts,DMCC8033964,wave3,reactive,ConNoInc,1,1,1,697,30,,lo
Cuedts,DMCC8033964,wave3,reactive,ConNoInc,1,1,1,684,31,,lo
Cuedts,DMCC8033964,wave3,reactive,InConInc,2,2,1,764,32,hi,hi
Cuedts,DMCC8033964,wave3,reactive,ConNoInc,2,2,1,718,33,,lo
Cuedts,DMCC8033964,wave3,reactive,ConNoInc,2,2,1,673,34,,lo
Cuedts,DMCC8033964,wave3,reactive,ConNoInc,1,1,1,772,35,,lo
Cuedts,DMCC8033964,wave3,reactive,InConInc,2,2,1,581,36,hi,hi
Cuedts,DMCC8033964,wave3,reactive,InConInc,2,2,1,519,37,hi,hi
Cuedts,DMCC8033964,wave3,reactive,ConNoInc,1,1,1,604,38,,lo
Cuedts,DMCC8033964,wave3,reactive,InConNoInc,2,2,1,691,39,,hi
Cuedts,DMCC8033964,wave3,reactive,ConNoInc,1,1,1,713,40,,lo
Cuedts,DMCC8033964,wave3,reactive,ConNoInc,1,1,1,634,41,,lo
Cuedts,DMCC8033964,wave3,reactive,InConInc,2,2,1,703,42,hi,hi
Cuedts,DMCC8033964,wave3,reactive,InConInc,1,1,1,675,43,hi,hi
Cuedts,DMCC8033964,wave3,reactive,ConNoInc,1,1,1,636,44,,lo
Cuedts,DMCC8033964,wave3,reactive,ConNoInc,2,2,1,767,45,,lo
Cuedts,DMCC8033964,wave3,reactive,ConNoInc,1,1,1,588,46,,lo
Cuedts,DMCC8033964,wave3,reactive,ConNoInc,2,2,1,636,47,,lo
Cuedts,DMCC8033964,wave3,reactive,InConInc,1,1,1,807,48,hi,hi
Cuedts,DMCC8033964,wave3,reactive,ConNoInc,1,1,1,602,49,,lo
Cuedts,DMCC8033964,wave3,reactive,InConInc,1,1,1,620,50,hi,hi
Cuedts,DMCC8033964,wave3,reactive,ConNoInc,2,2,1,884,51,,lo
Cuedts,DMCC8033964,wave3,reactive,ConNoInc,2,2,1,704,52,,lo
Cuedts,DMCC8033964,wave3,reactive,ConInc,2,2,1,623,53,lo,lo
Cuedts,DMCC8033964,wave3,reactive,ConNoInc,2,2,1,564,54,,lo
Cuedts,DMCC8033964,wave3,reactive,InConInc,2,2,1,700,55,hi,hi
Cuedts,DMCC8033964,wave3,reactive,InConNoInc,2,2,1,562,56,,hi
Cuedts,DMCC8033964,wave3,reactive,ConNoInc,1,1,1,535,57,,lo
Cuedts,DMCC8033964,wave3,reactive,ConNoInc,2,2,1,593,58,,lo
Cuedts,DMCC8033964,wave3,reactive,ConNoInc,1,1,1,754,59,,lo
Cuedts,DMCC8033964,wave3,reactive,ConNoInc,2,2,1,787,60,,lo
Cuedts,DMCC8033964,wave3,reactive,InConInc,2,2,1,537,61,hi,hi
Cuedts,DMCC8033964,wave3,reactive,ConNoInc,2,2,1,608,62,,lo
Cuedts,DMCC8033964,wave3,reactive,InConInc,1,1,1,697,63,hi,hi
Cuedts,DMCC8033964,wave3,reactive,ConNoInc,1,1,1,670,64,,lo
Cuedts,DMCC8033964,wave3,reactive,ConNoInc,1,1,1,653,65,,lo
Cuedts,DMCC8033964,wave3,reactive,InConInc,1,1,1,602,66,hi,hi
Cuedts,DMCC8033964,wave3,reactive,ConNoInc,2,2,1,606,67,,lo
Cuedts,DMCC8033964,wave3,reactive,ConNoInc,2,2,1,750,68,,lo
Cuedts,DMCC8033964,wave3,reactive,ConInc,1,1,1,653,69,lo,lo
Cuedts,DMCC8033964,wave3,reactive,ConNoInc,2,2,1,673,70,,lo
Cuedts,DMCC8033964,wave3,reactive,ConNoInc,1,1,1,754,71,,lo
Cuedts,DMCC8033964,wave3,reactive,InConInc,2,2,1,835,72,hi,hi
Cuedts,DMCC8033964,wave3,reactive,ConNoInc,1,1,1,556,73,,lo
Cuedts,DMCC8033964,wave3,reactive,InConNoInc,1,1,1,605,74,,hi
Cuedts,DMCC8033964,wave3,reactive,ConInc,1,1,1,751,75,lo,lo
Cuedts,DMCC8033964,wave3,reactive,ConNoInc,2,2,1,751,76,,lo
Cuedts,DMCC8033964,wave3,reactive,ConNoInc,2,2,1,589,77,,lo
Cuedts,DMCC8033964,wave3,reactive,InConInc,1,1,1,813,78,hi,hi
Cuedts,DMCC8033964,wave3,reactive,ConNoInc,1,1,1,781,79,,lo
Cuedts,DMCC8033964,wave3,reactive,ConNoInc,1,1,1,661,80,,lo
Cuedts,DMCC8033964,wave3,reactive,InConNoInc,2,2,1,951,81,,hi
Cuedts,DMCC8033964,wave3,reactive,ConNoInc,2,2,1,637,82,,lo
Cuedts,DMCC8033964,wave3,reactive,ConNoInc,2,2,1,723,83,,lo
Cuedts,DMCC8033964,wave3,reactive,ConNoInc,1,1,1,724,84,,lo
Cuedts,DMCC8033964,wave3,reactive,InConInc,1,2,0,737,85,hi,hi
Cuedts,DMCC8033964,wave3,reactive,ConNoInc,1,1,1,641,86,,lo
Cuedts,DMCC8033964,wave3,reactive,InConInc,2,2,1,936,87,hi,hi
Cuedts,DMCC8033964,wave3,reactive,InConInc,1,1,1,693,88,hi,hi
Cuedts,DMCC8033964,wave3,reactive,ConInc,2,2,1,942,89,lo,lo
Cuedts,DMCC8033964,wave3,reactive,ConNoInc,1,1,1,771,90,,lo
Cuedts,DMCC8033964,wave3,reactive,ConNoInc,2,2,1,592,91,,lo
Cuedts,DMCC8033964,wave3,reactive,ConNoInc,1,1,1,699,92,,lo
Cuedts,DMCC8033964,wave3,reactive,InConInc,2,2,1,688,93,hi,hi
Cuedts,DMCC8033964,wave3,reactive,InConInc,1,1,1,737,94,hi,hi
Cuedts,DMCC8033964,wave3,reactive,InConInc,2,2,1,721,95,hi,hi
Cuedts,DMCC8033964,wave3,reactive,InConNoInc,1,1,1,717,96,,hi
Cuedts,DMCC8033964,wave3,reactive,ConNoInc,2,2,1,681,97,,lo
Cuedts,DMCC8033964,wave3,reactive,ConNoInc,2,2,1,645,98,,lo
Cuedts,DMCC8033964,wave3,reactive,ConNoInc,2,2,1,575,99,,lo
Cuedts,DMCC8033964,wave3,reactive,ConNoInc,2,2,1,688,100,,lo
Cuedts,DMCC8033964,wave3,reactive,ConInc,2,2,1,598,101,lo,lo
Cuedts,DMCC8033964,wave3,reactive,InConInc,1,1,1,707,102,hi,hi
Cuedts,DMCC8033964,wave3,reactive,InConNoInc,2,2,1,611,103,,hi
Cuedts,DMCC8033964,wave3,reactive,ConNoInc,2,2,1,697,104,,lo
Cuedts,DMCC8033964,wave3,reactive,InConInc,2,2,1,692,105,hi,hi
Cuedts,DMCC8033964,wave3,reactive,ConNoInc,1,1,1,690,106,,lo
Cuedts,DMCC8033964,wave3,reactive,ConNoInc,1,1,1,850,107,,lo
Cuedts,DMCC8033964,wave3,reactive,ConNoInc,1,1,1,812,108,,lo
Stern,DMCC8033964,wave2,baseline,LL5NP,1,1,1,839,1,,5
Stern,DMCC8033964,wave2,baseline,not5NN,2,2,1,958,2,,8
Stern,DMCC8033964,wave2,baseline,not5NN,2,2,1,867,3,,8
Stern,DMCC8033964,wave2,baseline,LL5NP,1,1,1,941,4,,5
Stern,DMCC8033964,wave2,baseline,not5NN,2,2,1,856,5,,6
Stern,DMCC8033964,wave2,baseline,not5NP,1,1,1,796,6,,8
Stern,DMCC8033964,wave2,baseline,LL5NN,2,2,1,873,7,lo,5
Stern,DMCC8033964,wave2,baseline,not5NP,1,1,1,937,8,,7
Stern,DMCC8033964,wave2,baseline,LL5NN,2,2,1,771,9,lo,5
Stern,DMCC8033964,wave2,baseline,LL5NP,1,1,1,823,10,,5
Stern,DMCC8033964,wave2,baseline,not5NP,1,1,1,773,11,,7
Stern,DMCC8033964,wave2,baseline,not5NP,1,2,0,1488,12,,8
Stern,DMCC8033964,wave2,baseline,not5NN,2,2,1,791,13,,7
Stern,DMCC8033964,wave2,baseline,not5NP,1,1,1,954,14,,6
Stern,DMCC8033964,wave2,baseline,LL5RN,2,2,1,790,15,hi,5
Stern,DMCC8033964,wave2,baseline,not5NN,2,2,1,724,16,,6
Stern,DMCC8033964,wave2,baseline,not5NN,2,2,1,756,17,,8
Stern,DMCC8033964,wave2,baseline,not5NP,1,1,1,1195,18,,7
Stern,DMCC8033964,wave2,baseline,not5NP,1,1,1,932,19,,7
Stern,DMCC8033964,wave2,baseline,not5NP,1,1,1,748,20,,8
Stern,DMCC8033964,wave2,baseline,LL5NP,1,1,1,1086,21,,5
Stern,DMCC8033964,wave2,baseline,not5NN,2,2,1,1196,22,,7
Stern,DMCC8033964,wave2,baseline,LL5NP,1,1,1,754,23,,5
Stern,DMCC8033964,wave2,baseline,not5NN,2,2,1,914,24,,8
Stern,DMCC8033964,wave2,baseline,LL5RN,2,2,1,942,25,hi,5
Stern,DMCC8033964,wave2,baseline,LL5NN,2,2,1,850,26,lo,5
Stern,DMCC8033964,wave2,baseline,not5NP,1,1,1,979,27,,8
Stern,DMCC8033964,wave2,baseline,not5NP,1,1,1,729,28,,8
Stern,DMCC8033964,wave2,baseline,LL5NP,1,1,1,762,29,,5
Stern,DMCC8033964,wave2,baseline,LL5NN,2,2,1,928,30,lo,5
Stern,DMCC8033964,wave2,baseline,LL5NN,2,2,1,686,31,lo,5
Stern,DMCC8033964,wave2,baseline,LL5NP,1,1,1,1359,32,,5
Stern,DMCC8033964,wave2,baseline,not5NP,1,1,1,908,33,,8
Stern,DMCC8033964,wave2,baseline,LL5RN,2,2,1,829,34,hi,5
Stern,DMCC8033964,wave2,baseline,not5NN,2,2,1,775,35,,8
Stern,DMCC8033964,wave2,baseline,not5NP,1,1,1,682,36,,7
Stern,DMCC8033964,wave2,baseline,not5NP,1,1,1,803,37,,8
Stern,DMCC8033964,wave2,baseline,LL5NN,2,2,1,748,38,lo,5
Stern,DMCC8033964,wave2,baseline,not5NP,1,1,1,881,39,,6
Stern,DMCC8033964,wave2,baseline,not5RN,2,2,1,786,40,,8
Stern,DMCC8033964,wave2,baseline,LL5NP,1,1,1,832,41,,5
Stern,DMCC8033964,wave2,baseline,not5NN,2,2,1,918,42,,8
Stern,DMCC8033964,wave2,baseline,LL5NP,1,1,1,1003,43,,5
Stern,DMCC8033964,wave2,baseline,not5NN,2,2,1,817,44,,7
Stern,DMCC8033964,wave2,baseline,not5NN,2,2,1,882,45,,7
Stern,DMCC8033964,wave2,baseline,LL5NP,1,1,1,839,46,,5
Stern,DMCC8033964,wave2,baseline,LL5NP,1,1,1,834,47,,5
Stern,DMCC8033964,wave2,baseline,LL5NN,2,2,1,869,48,lo,5
Stern,DMCC8033964,wave2,baseline,not5NN,2,2,1,849,49,,6
Stern,DMCC8033964,wave2,baseline,not5NN,2,2,1,790,50,,8
Stern,DMCC8033964,wave2,baseline,LL5NP,1,1,1,1009,51,,5
Stern,DMCC8033964,wave2,baseline,LL5RN,2,2,1,1075,52,hi,5
Stern,DMCC8033964,wave2,baseline,LL5NN,2,2,1,730,53,lo,5
Stern,DMCC8033964,wave2,baseline,not5NN,2,2,1,752,54,,7
Stern,DMCC8033964,wave2,baseline,not5NP,1,1,1,854,55,,6
Stern,DMCC8033964,wave2,baseline,not5NP,1,1,1,732,56,,8
Stern,DMCC8033964,wave2,baseline,not5NN,2,2,1,835,57,,8
Stern,DMCC8033964,wave2,baseline,not5NP,1,1,1,622,58,,7
Stern,DMCC8033964,wave2,baseline,not5NP,1,2,0,1312,59,,8
Stern,DMCC8033964,wave2,baseline,not5RN,2,2,1,932,60,,7
Stern,DMCC8033964,wave2,baseline,LL5NP,1,1,1,953,61,,5
Stern,DMCC8033964,wave2,baseline,not5NN,2,2,1,981,62,,8
Stern,DMCC8033964,wave2,baseline,not5RN,2,2,1,1094,63,,8
Stern,DMCC8033964,wave2,baseline,LL5NP,1,1,1,794,64,,5
Stern,DMCC8033964,wave2,baseline,LL5RN,2,1,0,718,65,hi,5
Stern,DMCC8033964,wave2,baseline,not5NN,2,2,1,760,66,,6
Stern,DMCC8033964,wave2,baseline,not5NP,1,1,1,770,67,,8
Stern,DMCC8033964,wave2,baseline,not5NN,2,2,1,1200,68,,7
Stern,DMCC8033964,wave2,baseline,LL5NN,2,2,1,862,69,lo,5
Stern,DMCC8033964,wave2,baseline,not5NP,1,1,1,778,70,,8
Stern,DMCC8033964,wave2,baseline,LL5NP,1,1,1,1023,71,,5
Stern,DMCC8033964,wave2,baseline,not5NP,1,1,1,787,72,,7
Stern,DMCC8033964,wave2,baseline,LL5NN,2,2,1,849,73,lo,5
Stern,DMCC8033964,wave2,baseline,not5NN,2,2,1,1124,74,,8
Stern,DMCC8033964,wave2,baseline,not5NP,1,1,1,807,75,,7
Stern,DMCC8033964,wave2,baseline,not5NN,2,2,1,1001,76,,7
Stern,DMCC8033964,wave2,baseline,not5NP,1,1,1,862,77,,7
Stern,DMCC8033964,wave2,baseline,not5NP,1,1,1,751,78,,6
Stern,DMCC8033964,wave2,baseline,not5NN,2,2,1,944,79,,7
Stern,DMCC8033964,wave2,baseline,not5NP,1,1,1,753,80,,8
Stern,DMCC8033964,wave2,baseline,not5NP,1,1,1,756,81,,8
Stern,DMCC8033964,wave2,baseline,LL5NP,1,1,1,718,82,,5
Stern,DMCC8033964,wave2,baseline,not5NN,2,1,0,1510,83,,8
Stern,DMCC8033964,wave2,baseline,LL5NN,2,2,1,896,84,lo,5
Stern,DMCC8033964,wave2,baseline,LL5NP,1,1,1,1038,85,,5
Stern,DMCC8033964,wave2,baseline,LL5RN,2,2,1,1509,86,hi,5
Stern,DMCC8033964,wave2,baseline,LL5NP,1,1,1,1062,87,,5
Stern,DMCC8033964,wave2,baseline,not5NN,2,2,1,898,88,,6
Stern,DMCC8033964,wave2,baseline,not5NP,1,1,1,1069,89,,8
Stern,DMCC8033964,wave2,baseline,LL5NN,2,2,1,879,90,lo,5
Stern,DMCC8033964,wave2,proactive,not5NN,2,2,1,826,1,,2
Stern,DMCC8033964,wave2,proactive,LL5NP,1,1,1,1001,2,,5
Stern,DMCC8033964,wave2,proactive,not5NN,2,2,1,750,3,,4
Stern,DMCC8033964,wave2,proactive,LL5NP,1,1,1,709,4,,5
Stern,DMCC8033964,wave2,proactive,not5NP,1,1,1,658,5,,3
Stern,DMCC8033964,wave2,proactive,LL5NN,2,2,1,666,6,lo,5
Stern,DMCC8033964,wave2,proactive,not5NN,2,2,1,595,7,,2
Stern,DMCC8033964,wave2,proactive,not5NP,1,1,1,790,8,,4
Stern,DMCC8033964,wave2,proactive,LL5RN,2,2,1,1342,9,hi,5
Stern,DMCC8033964,wave2,proactive,LL5NN,2,2,1,706,10,lo,5
Stern,DMCC8033964,wave2,proactive,not5NN,2,2,1,1111,11,,3
Stern,DMCC8033964,wave2,proactive,LL5NP,1,1,1,1118,12,,5
Stern,DMCC8033964,wave2,proactive,not5NP,1,1,1,531,13,,2
Stern,DMCC8033964,wave2,proactive,not5NP,1,1,1,565,14,,2
Stern,DMCC8033964,wave2,proactive,not5NP,1,1,1,757,15,,3
Stern,DMCC8033964,wave2,proactive,LL5NP,1,1,1,975,16,,5
Stern,DMCC8033964,wave2,proactive,LL5NN,2,2,1,723,17,lo,5
Stern,DMCC8033964,wave2,proactive,not5NN,2,2,1,753,18,,2
Stern,DMCC8033964,wave2,proactive,not5NP,1,1,1,723,19,,2
Stern,DMCC8033964,wave2,proactive,LL5NP,1,1,1,990,20,,5
Stern,DMCC8033964,wave2,proactive,not5NP,1,1,1,808,21,,3
Stern,DMCC8033964,wave2,proactive,not5NN,2,2,1,702,22,,4
Stern,DMCC8033964,wave2,proactive,LL5NN,2,2,1,709,23,lo,5
Stern,DMCC8033964,wave2,proactive,not5NN,2,2,1,707,24,,3
Stern,DMCC8033964,wave2,proactive,not5NP,1,1,1,809,25,,3
Stern,DMCC8033964,wave2,proactive,LL5RN,2,2,1,1651,26,hi,5
Stern,DMCC8033964,wave2,proactive,LL5NP,1,1,1,1013,27,,5
Stern,DMCC8033964,wave2,proactive,not5NN,2,2,1,694,28,,2
Stern,DMCC8033964,wave2,proactive,not5NP,1,1,1,711,29,,2
Stern,DMCC8033964,wave2,proactive,not5NP,1,1,1,657,30,,2
Stern,DMCC8033964,wave2,proactive,not5NP,1,1,1,688,31,,4
Stern,DMCC8033964,wave2,proactive,not5NN,2,2,1,697,32,,3
Stern,DMCC8033964,wave2,proactive,LL5NN,2,2,1,845,33,lo,5
Stern,DMCC8033964,wave2,proactive,LL5NP,1,1,1,1303,34,,5
Stern,DMCC8033964,wave2,proactive,LL5NP,1,1,1,766,35,,5
Stern,DMCC8033964,wave2,proactive,not5NP,1,1,1,871,36,,3
Stern,DMCC8033964,wave2,proactive,not5NN,2,2,1,705,37,,2
Stern,DMCC8033964,wave2,proactive,LL5RN,2,2,1,1056,38,hi,5
Stern,DMCC8033964,wave2,proactive,not5NP,1,1,1,670,39,,2
Stern,DMCC8033964,wave2,proactive,not5NN,2,2,1,801,40,,3
Stern,DMCC8033964,wave2,proactive,LL5NP,1,1,1,681,41,,5
Stern,DMCC8033964,wave2,proactive,not5NN,2,2,1,744,42,,2
Stern,DMCC8033964,wave2,proactive,not5RN,2,2,1,816,43,,2
Stern,DMCC8033964,wave2,proactive,LL5NN,2,2,1,816,44,lo,5
Stern,DMCC8033964,wave2,proactive,not5NP,1,1,1,678,45,,2
Stern,DMCC8033964,wave2,proactive,not5NN,2,2,1,763,46,,4
Stern,DMCC8033964,wave2,proactive,LL5NP,1,1,1,1014,47,,5
Stern,DMCC8033964,wave2,proactive,not5NP,1,1,1,804,48,,4
Stern,DMCC8033964,wave2,proactive,not5NP,1,1,1,793,49,,3
Stern,DMCC8033964,wave2,proactive,not5NP,1,1,1,681,50,,2
Stern,DMCC8033964,wave2,proactive,LL5RN,2,2,1,949,51,hi,5
Stern,DMCC8033964,wave2,proactive,not5NN,2,2,1,822,52,,2
Stern,DMCC8033964,wave2,proactive,not5NN,2,2,1,692,53,,2
Stern,DMCC8033964,wave2,proactive,not5NN,2,2,1,723,54,,3
Stern,DMCC8033964,wave2,proactive,not5RN,2,2,1,960,55,,3
Stern,DMCC8033964,wave2,proactive,LL5NN,2,2,1,885,56,lo,5
Stern,DMCC8033964,wave2,proactive,LL5NP,1,1,1,958,57,,5
Stern,DMCC8033964,wave2,proactive,not5NP,1,1,1,563,58,,2
Stern,DMCC8033964,wave2,proactive,LL5NN,2,2,1,726,59,lo,5
Stern,DMCC8033964,wave2,proactive,LL5NP,1,1,1,684,60,,5
Stern,DMCC8033964,wave2,proactive,not5NP,1,1,1,746,61,,3
Stern,DMCC8033964,wave2,proactive,not5NP,1,1,1,644,62,,3
Stern,DMCC8033964,wave2,proactive,LL5NP,1,1,1,852,63,,5
Stern,DMCC8033964,wave2,proactive,LL5NN,2,2,1,714,64,lo,5
Stern,DMCC8033964,wave2,proactive,not5RN,2,2,1,688,65,,2
Stern,DMCC8033964,wave2,proactive,LL5NP,1,1,1,643,66,,5
Stern,DMCC8033964,wave2,proactive,not5NN,2,2,1,654,67,,4
Stern,DMCC8033964,wave2,proactive,not5NN,2,2,1,706,68,,2
Stern,DMCC8033964,wave2,proactive,not5NN,2,2,1,693,69,,3
Stern,DMCC8033964,wave2,proactive,not5NP,1,1,1,674,70,,2
Stern,DMCC8033964,wave2,proactive,LL5NP,1,1,1,778,71,,5
Stern,DMCC8033964,wave2,proactive,not5NN,2,2,1,660,72,,2
Stern,DMCC8033964,wave2,proactive,not5NP,1,1,1,595,73,,2
Stern,DMCC8033964,wave2,proactive,LL5NN,2,2,1,741,74,lo,5
Stern,DMCC8033964,wave2,proactive,LL5RN,2,2,1,733,75,hi,5
Stern,DMCC8033964,wave2,proactive,not5NN,2,2,1,697,76,,2
Stern,DMCC8033964,wave2,proactive,not5NP,1,1,1,861,77,,3
Stern,DMCC8033964,wave2,proactive,not5NP,1,1,1,645,78,,2
Stern,DMCC8033964,wave2,proactive,LL5NN,2,2,1,873,79,lo,5
Stern,DMCC8033964,wave2,proactive,LL5NP,1,1,1,659,80,,5
Stern,DMCC8033964,wave2,proactive,not5NP,1,1,1,710,81,,2
Stern,DMCC8033964,wave2,proactive,not5NN,2,2,1,691,82,,3
Stern,DMCC8033964,wave2,proactive,LL5NP,1,1,1,879,83,,5
Stern,DMCC8033964,wave2,proactive,not5NN,2,2,1,696,84,,3
Stern,DMCC8033964,wave2,proactive,LL5RN,2,2,1,733,85,hi,5
Stern,DMCC8033964,wave2,proactive,LL5NP,1,1,1,671,86,,5
Stern,DMCC8033964,wave2,proactive,not5NP,1,1,1,529,87,,2
Stern,DMCC8033964,wave2,proactive,not5NP,1,1,1,739,88,,4
Stern,DMCC8033964,wave2,proactive,LL5NN,2,2,1,749,89,lo,5
Stern,DMCC8033964,wave2,proactive,not5NN,2,2,1,717,90,,4
Stern,DMCC8033964,wave2,reactive,not5NP,1,1,1,838,1,,8
Stern,DMCC8033964,wave2,reactive,LL5RN,2,2,1,655,2,hi,5
Stern,DMCC8033964,wave2,reactive,LL5NP,1,1,1,798,3,,5
Stern,DMCC8033964,wave2,reactive,LL5NP,1,1,1,833,4,,5
Stern,DMCC8033964,wave2,reactive,not5RN,2,2,1,827,5,,7
Stern,DMCC8033964,wave2,reactive,not5NP,1,1,1,945,6,,6
Stern,DMCC8033964,wave2,reactive,not5NP,1,1,1,794,7,,7
Stern,DMCC8033964,wave2,reactive,not5RN,2,2,1,1021,8,,8
Stern,DMCC8033964,wave2,reactive,LL5NP,1,1,1,925,9,,5
Stern,DMCC8033964,wave2,reactive,LL5RN,2,2,1,785,10,hi,5
Stern,DMCC8033964,wave2,reactive,LL5NN,2,2,1,664,11,lo,5
Stern,DMCC8033964,wave2,reactive,not5NP,1,1,1,856,12,,7
Stern,DMCC8033964,wave2,reactive,not5RN,2,2,1,906,13,,8
Stern,DMCC8033964,wave2,reactive,not5NP,1,2,0,1145,14,,8
Stern,DMCC8033964,wave2,reactive,not5RN,2,2,1,765,15,,6
Stern,DMCC8033964,wave2,reactive,LL5NP,1,1,1,905,16,,5
Stern,DMCC8033964,wave2,reactive,not5RN,2,2,1,804,17,,7
Stern,DMCC8033964,wave2,reactive,not5RN,2,1,0,1262,18,,8
Stern,DMCC8033964,wave2,reactive,not5NP,1,1,1,646,19,,8
Stern,DMCC8033964,wave2,reactive,not5RN,2,2,1,766,20,,6
Stern,DMCC8033964,wave2,reactive,LL5NN,2,2,1,689,21,lo,5
Stern,DMCC8033964,wave2,reactive,LL5NP,1,1,1,773,22,,5
Stern,DMCC8033964,wave2,reactive,not5RN,2,2,1,785,23,,8
Stern,DMCC8033964,wave2,reactive,LL5RN,2,2,1,628,24,hi,5
Stern,DMCC8033964,wave2,reactive,not5NP,1,1,1,1120,25,,8
Stern,DMCC8033964,wave2,reactive,LL5RN,2,2,1,1167,26,hi,5
Stern,DMCC8033964,wave2,reactive,LL5NP,1,1,1,708,27,,5
Stern,DMCC8033964,wave2,reactive,not5NP,1,1,1,736,28,,7
Stern,DMCC8033964,wave2,reactive,not5NP,1,1,1,808,29,,8
Stern,DMCC8033964,wave2,reactive,not5NP,1,1,1,754,30,,7
Stern,DMCC8033964,wave2,reactive,LL5NP,1,1,1,1120,31,,5
Stern,DMCC8033964,wave2,reactive,LL5RN,2,2,1,1175,32,hi,5
Stern,DMCC8033964,wave2,reactive,not5NN,2,2,1,762,33,,8
Stern,DMCC8033964,wave2,reactive,not5RN,2,2,1,767,34,,8
Stern,DMCC8033964,wave2,reactive,not5RN,2,2,1,1083,35,,7
Stern,DMCC8033964,wave2,reactive,not5RN,2,2,1,953,36,,8
Stern,DMCC8033964,wave2,reactive,not5RN,2,2,1,873,37,,7
Stern,DMCC8033964,wave2,reactive,LL5NP,1,1,1,905,38,,5
Stern,DMCC8033964,wave2,reactive,LL5RN,2,2,1,1033,39,hi,5
Stern,DMCC8033964,wave2,reactive,LL5NN,2,2,1,836,40,lo,5
Stern,DMCC8033964,wave2,reactive,not5NP,1,1,1,768,41,,8
Stern,DMCC8033964,wave2,reactive,not5NP,1,1,1,927,42,,7
Stern,DMCC8033964,wave2,reactive,LL5NP,1,1,1,986,43,,5
Stern,DMCC8033964,wave2,reactive,not5NP,1,1,1,747,44,,6
Stern,DMCC8033964,wave2,reactive,not5NP,1,1,1,1019,45,,8
Stern,DMCC8033964,wave2,reactive,LL5NN,2,2,1,783,46,lo,5
Stern,DMCC8033964,wave2,reactive,not5NP,1,1,1,887,47,,8
Stern,DMCC8033964,wave2,reactive,not5RN,2,1,0,1097,48,,8
Stern,DMCC8033964,wave2,reactive,not5RN,2,2,1,991,49,,8
Stern,DMCC8033964,wave2,reactive,LL5RN,2,2,1,944,50,hi,5
Stern,DMCC8033964,wave2,reactive,not5NN,2,2,1,720,51,,7
Stern,DMCC8033964,wave2,reactive,not5NP,1,1,1,675,52,,7
Stern,DMCC8033964,wave2,reactive,not5RN,2,2,1,1068,53,,6
Stern,DMCC8033964,wave2,reactive,not5NP,1,1,1,1174,54,,6
Stern,DMCC8033964,wave2,reactive,LL5NP,1,1,1,737,55,,5
Stern,DMCC8033964,wave2,reactive,LL5RN,2,2,1,1181,56,hi,5
Stern,DMCC8033964,wave2,reactive,not5NP,1,1,1,794,57,,8
Stern,DMCC8033964,wave2,reactive,LL5NP,1,1,1,712,58,,5
Stern,DMCC8033964,wave2,reactive,LL5NP,1,1,1,842,59,,5
Stern,DMCC8033964,wave2,reactive,not5RN,2,2,1,1357,60,,7
Stern,DMCC8033964,wave2,reactive,not5NN,2,2,1,784,61,,8
Stern,DMCC8033964,wave2,reactive,not5NP,1,1,1,756,62,,7
Stern,DMCC8033964,wave2,reactive,not5RN,2,1,0,978,63,,8
Stern,DMCC8033964,wave2,reactive,LL5NP,1,1,1,726,64,,5
Stern,DMCC8033964,wave2,reactive,LL5NP,1,1,1,712,65,,5
Stern,DMCC8033964,wave2,reactive,LL5NP,1,1,1,1435,66,,5
Stern,DMCC8033964,wave2,reactive,not5NP,1,1,1,951,67,,8
Stern,DMCC8033964,wave2,reactive,LL5RN,2,2,1,931,68,hi,5
