wave,session,task,run,subj,name,trialtype,iti,cue,probe,target.color,location,cue.cresp,cresp,cue.rt,cue.acc,cue.resp,rt,acc,resp,trialacc,time.cue.onset.abs,time.target.onset.abs,time.target.rt.abs,time.cue.rt.abs,time.scan.start,trial.num,time.cue.onset,time.cue.rt,time.target.onset,time.target.rt,time.block1.on,time.block2.on,time.block3.on,time.block1.off,time.block2.off,time.block3.off
2,bas,axc,1,DMCC8033964,bas_axc_run1_DMCC8033964,AX,2800,A,X,white,center,1,2,467,1,1,704,1,2,1,138123,142923,143627,138590,107511,1,30.612,31.079,35.412,36.116,28.413,260.009,491.605,231.624,463.221,694.83
2,bas,axc,1,DMCC8033964,bas_axc_run1_DMCC8033964,Ang,1600,A,7,white,center,1,,645,1,1,0,1,,1,146523,151322,0,147168,107511,2,39.012,39.657,43.811,-107.511,28.413,260.009,491.605,231.624,463.221,694.83
2,bas,axc,1,DMCC8033964,bas_axc_run1_DMCC8033964,BX,4000,U,X,white,center,1,1,715,1,1,736,1,1,1,153722,158522,159258,154437,107511,3,46.211,46.926,51.011,51.747,28.413,260.009,491.605,231.624,463.221,694.83
2,bas,axc,1,DMCC8033964,bas_axc_run1_DMCC8033964,BY,2800,U,P,white,center,1,1,787,1,1,774,1,1,1,163322,168121,168895,164109,107511,4,55.811,56.598,60.61,61.384,28.413,260.009,491.605,231.624,463.221,694.83
2,bas,axc,1,DMCC8033964,bas_axc_run1_DMCC8033964,BY,1600,N,U,white,center,1,1,785,1,1,639,1,1,1,171721,176521,177160,172506,107511,5,64.21,64.995,69.01,69.649,28.413,260.009,491.605,231.624,463.221,694.83
2,bas,axc,1,DMCC8033964,bas_axc_run1_DMCC8033964,BY,2800,C,M,white,center,1,1,769,1,1,651,1,1,1,178920,183720,184371,179689,107511,6,71.409,72.178,76.209,76.86,28.413,260.009,491.605,231.624,463.221,694.83
2,bas,axc,1,DMCC8033964,bas_axc_run1_DMCC8033964,BY,1600,M,F,white,center,1,1,694,1,1,717,1,1,1,187320,192119,192836,188014,107511,7,79.809,80.503,84.608,85.325,28.413,260.009,491.605,231.624,463.221,694.83
2,bas,axc,1,DMCC8033964,bas_axc_run1_DMCC8033964,Bng,4000,T,9,white,center,1,,889,1,1,0,1,,1,194519,199319,0,195408,107511,8,87.008,87.897,91.808,-107.511,28.413,260.009,491.605,231.624,463.221,694.83
2,bas,axc,1,DMCC8033964,bas_axc_run1_DMCC8033964,Bng,4000,P,4,white,center,1,,785,1,1,0,1,,1,204119,208918,0,204904,107511,9,96.608,97.393,101.407,-107.511,28.413,260.009,491.605,231.624,463.221,694.83
2,bas,axc,1,DMCC8033964,bas_axc_run1_DMCC8033964,AY,2800,A,T,white,center,1,1,781,1,1,696,1,1,1,213718,218518,219214,214499,107511,10,106.207,106.988,111.007,111.703,28.413,260.009,491.605,231.624,463.221,694.83
2,bas,axc,1,DMCC8033964,bas_axc_run1_DMCC8033964,AX,4000,A,X,white,center,1,2,785,1,1,699,1,2,1,222117,226917,227616,222902,107511,11,114.606,115.391,119.406,120.105,28.413,260.009,491.605,231.624,463.221,694.83
2,bas,axc,1,DMCC8033964,bas_axc_run1_DMCC8033964,AY,1600,A,D,white,center,1,1,614,1,1,672,1,1,1,231717,236516,237188,232331,107511,12,124.206,124.82,129.005,129.677,28.413,260.009,491.605,231.624,463.221,694.83
2,bas,axc,1,DMCC8033964,bas_axc_run1_DMCC8033964,AX,1600,A,X,white,center,1,2,977,1,1,584,1,2,1,238916,243716,244300,239893,107511,13,131.405,132.382,136.205,136.789,28.413,260.009,491.605,231.624,463.221,694.83
2,bas,axc,1,DMCC8033964,bas_axc_run1_DMCC8033964,AX,1600,A,X,white,center,1,2,665,1,1,621,1,2,1,246115,250928,251549,246780,107511,14,138.604,139.269,143.417,144.038,28.413,260.009,491.605,231.624,463.221,694.83
2,bas,axc,1,DMCC8033964,bas_axc_run1_DMCC8033964,BY,4000,D,T,white,center,1,1,629,1,1,583,1,1,1,253328,258128,258711,253957,107511,15,145.817,146.446,150.617,151.2,28.413,260.009,491.605,231.624,463.221,694.83
2,bas,axc,1,DMCC8033964,bas_axc_run1_DMCC8033964,BY,2800,N,P,white,center,1,1,581,1,1,546,1,1,1,262928,267727,268273,263509,107511,16,155.417,155.998,160.216,160.762,28.413,260.009,491.605,231.624,463.221,694.83
2,bas,axc,1,DMCC8033964,bas_axc_run1_DMCC8033964,Ang,2800,A,5,white,center,1,,656,1,1,0,1,,1,271327,276127,0,271983,107511,17,163.816,164.472,168.616,-107.511,28.413,260.009,491.605,231.624,463.221,694.83
2,bas,axc,1,DMCC8033964,bas_axc_run1_DMCC8033964,BY,4000,P,M,white,center,1,1,584,1,1,525,1,1,1,279726,284526,285051,280310,107511,18,172.215,172.799,177.015,177.54,28.413,260.009,491.605,231.624,463.221,694.83
2,bas,axc,1,DMCC8033964,bas_axc_run1_DMCC8033964,BY,1600,F,M,white,center,1,1,582,1,1,540,1,1,1,289326,294125,294665,289908,107511,19,181.815,182.397,186.614,187.154,28.413,260.009,491.605,231.624,463.221,694.83
2,bas,axc,1,DMCC8033964,bas_axc_run1_DMCC8033964,AX,1600,A,X,white,center,1,2,801,1,1,498,1,2,1,296525,301325,301823,297326,107511,20,189.014,189.815,193.814,194.312,28.413,260.009,491.605,231.624,463.221,694.83
2,bas,axc,1,DMCC8033964,bas_axc_run1_DMCC8033964,AX,4000,A,X,white,center,1,2,610,1,1,472,1,2,1,303725,308524,308996,304335,107511,21,196.214,196.824,201.013,201.485,28.413,260.009,491.605,231.624,463.221,694.83
2,bas,axc,1,DMCC8033964,bas_axc_run1_DMCC8033964,BX,2800,C,X,white,center,1,1,794,1,1,575,1,1,1,313324,318124,318699,314118,107511,22,205.813,206.607,210.613,211.188,28.413,260.009,491.605,231.624,463.221,694.83
2,bas,axc,1,DMCC8033964,bas_axc_run1_DMCC8033964,AX,2800,A,X,white,center,1,2,885,1,1,558,1,2,1,321723,326523,327081,322608,107511,23,214.212,215.097,219.012,219.57,28.413,260.009,491.605,231.624,463.221,694.83
2,bas,axc,1,DMCC8033964,bas_axc_run1_DMCC8033964,AX,4000,A,X,white,center,1,2,749,1,1,504,1,2,1,330123,334922,335426,330872,107511,24,222.612,223.361,227.411,227.915,28.413,260.009,491.605,231.624,463.221,694.83
2,bas,axc,1,DMCC8033964,bas_axc_run1_DMCC8033964,BY,2800,H,T,white,center,1,1,549,1,1,642,1,1,1,369720,374519,375161,370269,107511,25,262.209,262.758,267.008,267.65,28.413,260.009,491.605,231.624,463.221,694.83
2,bas,axc,1,DMCC8033964,bas_axc_run1_DMCC8033964,BY,1600,T,N,white,center,1,1,645,1,1,588,1,1,1,378119,382919,383507,378764,107511,26,270.608,271.253,275.408,275.996,28.413,260.009,491.605,231.624,463.221,694.83
2,bas,axc,1,DMCC8033964,bas_axc_run1_DMCC8033964,AX,4000,A,X,white,center,1,2,767,1,1,608,1,2,1,385319,390118,390726,386086,107511,27,277.808,278.575,282.607,283.215,28.413,260.009,491.605,231.624,463.221,694.83
2,bas,axc,1,DMCC8033964,bas_axc_run1_DMCC8033964,BX,4000,M,X,white,center,1,1,545,1,1,779,1,1,1,394918,399718,400497,395463,107511,28,287.407,287.952,292.207,292.986,28.413,260.009,491.605,231.624,463.221,694.83
2,bas,axc,1,DMCC8033964,bas_axc_run1_DMCC8033964,BX,1600,F,X,white,center,1,1,533,1,1,589,1,1,1,404517,409317,409906,405050,107511,29,297.006,297.539,301.806,302.395,28.413,260.009,491.605,231.624,463.221,694.83
2,bas,axc,1,DMCC8033964,bas_axc_run1_DMCC8033964,BY,1600,H,U,white,center,1,1,645,1,1,489,1,1,1,411717,416516,417005,412362,107511,30,304.206,304.851,309.005,309.494,28.413,260.009,491.605,231.624,463.221,694.83
2,bas,axc,1,DMCC8033964,bas_axc_run1_DMCC8033964,AX,4000,A,X,white,center,1,2,753,1,1,447,1,2,1,418916,423716,424163,419669,107511,31,311.405,312.158,316.205,316.652,28.413,260.009,491.605,231.624,463.221,694.83
2,bas,axc,1,DMCC8033964,bas_axc_run1_DMCC8033964,BY,2800,D,N,white,center,1,1,992,1,1,993,1,1,1,428529,433328,434321,429521,107511,32,321.018,322.01,325.817,326.81,28.413,260.009,491.605,231.624,463.221,694.83
2,bas,axc,1,DMCC8033964,bas_axc_run1_DMCC8033964,BY,2800,C,D,white,center,1,1,681,1,1,616,1,1,1,436928,441728,442344,437609,107511,33,329.417,330.098,334.217,334.833,28.413,260.009,491.605,231.624,463.221,694.83
2,bas,axc,1,DMCC8033964,bas_axc_run1_DMCC8033964,AX,1600,A,X,white,center,1,2,590,1,1,506,1,2,1,445328,450127,450633,445918,107511,34,337.817,338.407,342.616,343.122,28.413,260.009,491.605,231.624,463.221,694.83
2,bas,axc,1,DMCC8033964,bas_axc_run1_DMCC8033964,AX,4000,A,X,white,center,1,2,533,1,1,474,1,2,1,452527,457327,457801,453060,107511,35,345.016,345.549,349.816,350.29,28.413,260.009,491.605,231.624,463.221,694.83
2,bas,axc,1,DMCC8033964,bas_axc_run1_DMCC8033964,Ang,2800,A,9,white,center,1,,580,1,1,0,1,,1,462126,466926,0,462706,107511,36,354.615,355.195,359.415,-107.511,28.413,260.009,491.605,231.624,463.221,694.83
2,bas,axc,1,DMCC8033964,bas_axc_run1_DMCC8033964,Bng,4000,C,8,white,center,1,,635,1,1,0,1,,1,470526,475325,0,471161,107511,37,363.015,363.65,367.814,-107.511,28.413,260.009,491.605,231.624,463.221,694.83
2,bas,axc,1,DMCC8033964,bas_axc_run1_DMCC8033964,BY,2800,U,D,white,center,1,1,609,1,1,681,1,1,1,480125,484925,485606,480734,107511,38,372.614,373.223,377.414,378.095,28.413,260.009,491.605,231.624,463.221,694.83
2,bas,axc,1,DMCC8033964,bas_axc_run1_DMCC8033964,AX,1600,A,X,white,center,1,2,671,1,1,530,1,2,1,488524,493324,493854,489195,107511,39,381.013,381.684,385.813,386.343,28.413,260.009,491.605,231.624,463.221,694.83
2,bas,axc,1,DMCC8033964,bas_axc_run1_DMCC8033964,BY,1600,P,H,white,center,1,1,644,1,1,507,1,1,1,495724,500524,501031,496368,107511,40,388.213,388.857,393.013,393.52,28.413,260.009,491.605,231.624,463.221,694.83
2,bas,axc,1,DMCC8033964,bas_axc_run1_DMCC8033964,Bng,4000,D,4,white,center,1,,662,1,1,0,1,,1,502923,507723,0,503585,107511,41,395.412,396.074,400.212,-107.511,28.413,260.009,491.605,231.624,463.221,694.83
2,bas,axc,1,DMCC8033964,bas_axc_run1_DMCC8033964,BY,2800,M,P,white,center,1,1,792,1,1,697,1,1,1,512523,517322,518019,513315,107511,42,405.012,405.804,409.811,410.508,28.413,260.009,491.605,231.624,463.221,694.83
2,bas,axc,1,DMCC8033964,bas_axc_run1_DMCC8033964,AX,4000,A,X,white,center,1,2,792,1,1,536,1,2,1,520922,525722,526258,521714,107511,43,413.411,414.203,418.211,418.747,28.413,260.009,491.605,231.624,463.221,694.83
2,bas,axc,1,DMCC8033964,bas_axc_run1_DMCC8033964,AX,4000,A,X,white,center,1,2,627,1,1,488,1,2,1,530521,535321,535809,531148,107511,44,423.01,423.637,427.81,428.298,28.413,260.009,491.605,231.624,463.221,694.83
2,bas,axc,1,DMCC8033964,bas_axc_run1_DMCC8033964,AY,2800,A,H,white,center,1,1,715,1,1,766,0,2,0,540121,544920,545686,540836,107511,45,432.61,433.325,437.409,438.175,28.413,260.009,491.605,231.624,463.221,694.83
2,bas,axc,1,DMCC8033964,bas_axc_run1_DMCC8033964,Ang,1600,A,3,white,center,1,,510,1,1,0,1,,1,548520,553320,0,549030,107511,46,441.009,441.519,445.809,-107.511,28.413,260.009,491.605,231.624,463.221,694.83
2,bas,axc,1,DMCC8033964,bas_axc_run1_DMCC8033964,AY,2800,A,N,white,center,1,1,593,1,1,580,1,1,1,555719,560519,561099,556312,107511,47,448.208,448.801,453.008,453.588,28.413,260.009,491.605,231.624,463.221,694.83
2,bas,axc,1,DMCC8033964,bas_axc_run1_DMCC8033964,AX,1600,A,X,white,center,1,2,521,1,1,516,1,2,1,564119,568919,569435,564640,107511,48,456.608,457.129,461.408,461.924,28.413,260.009,491.605,231.624,463.221,694.83
2,bas,axc,1,DMCC8033964,bas_axc_run1_DMCC8033964,AX,4000,A,X,white,center,1,2,409,1,1,527,1,2,1,601316,606116,606643,601725,107511,49,493.805,494.214,498.605,499.132,28.413,260.009,491.605,231.624,463.221,694.83
2,bas,axc,1,DMCC8033964,bas_axc_run1_DMCC8033964,AY,2800,A,D,white,center,1,1,509,1,1,607,1,1,1,610929,615728,616335,611438,107511,50,503.418,503.927,508.217,508.824,28.413,260.009,491.605,231.624,463.221,694.83
2,bas,axc,1,DMCC8033964,bas_axc_run1_DMCC8033964,BY,2800,T,M,white,center,1,1,719,1,1,515,1,1,1,619328,624128,624643,620047,107511,51,511.817,512.536,516.617,517.132,28.413,260.009,491.605,231.624,463.221,694.83
2,bas,axc,1,DMCC8033964,bas_axc_run1_DMCC8033964,BY,1600,F,C,white,center,1,1,736,1,1,707,1,1,1,627728,632527,633234,628464,107511,52,520.217,520.953,525.016,525.723,28.413,260.009,491.605,231.624,463.221,694.83
2,bas,axc,1,DMCC8033964,bas_axc_run1_DMCC8033964,AX,4000,A,X,white,center,1,2,641,1,1,436,1,2,1,634927,639727,640163,635568,107511,53,527.416,528.057,532.216,532.652,28.413,260.009,491.605,231.624,463.221,694.83
2,bas,axc,1,DMCC8033964,bas_axc_run1_DMCC8033964,Ang,1600,A,1,white,center,1,,525,1,1,0,1,,1,644526,649326,0,645051,107511,54,537.015,537.54,541.815,-107.511,28.413,260.009,491.605,231.624,463.221,694.83
2,bas,axc,1,DMCC8033964,bas_axc_run1_DMCC8033964,AX,4000,A,X,white,center,1,2,547,1,1,465,1,2,1,651726,656525,656990,652273,107511,55,544.215,544.762,549.014,549.479,28.413,260.009,491.605,231.624,463.221,694.83
2,bas,axc,1,DMCC8033964,bas_axc_run1_DMCC8033964,BY,2800,D,N,white,center,1,1,730,1,1,590,1,1,1,661325,666125,666715,662055,107511,56,553.814,554.544,558.614,559.204,28.413,260.009,491.605,231.624,463.221,694.83
2,bas,axc,1,DMCC8033964,bas_axc_run1_DMCC8033964,BY,1600,C,D,white,center,1,1,727,1,1,582,1,1,1,669724,674524,675106,670451,107511,57,562.213,562.94,567.013,567.595,28.413,260.009,491.605,231.624,463.221,694.83
2,bas,axc,1,DMCC8033964,bas_axc_run1_DMCC8033964,AY,2800,A,T,white,center,1,1,899,1,1,678,1,1,1,676924,681724,682402,677823,107511,58,569.413,570.312,574.213,574.891,28.413,260.009,491.605,231.624,463.221,694.83
2,bas,axc,1,DMCC8033964,bas_axc_run1_DMCC8033964,AX,4000,A,X,white,center,1,2,650,1,1,513,1,2,1,685323,690123,690636,685973,107511,59,577.812,578.462,582.612,583.125,28.413,260.009,491.605,231.624,463.221,694.83
2,bas,axc,1,DMCC8033964,bas_axc_run1_DMCC8033964,BY,1600,M,F,white,center,1,1,696,1,1,699,1,1,1,694923,699722,700421,695619,107511,60,587.412,588.108,592.211,592.91,28.413,260.009,491.605,231.624,463.221,694.83
2,bas,axc,1,DMCC8033964,bas_axc_run1_DMCC8033964,BX,1600,P,X,white,center,1,1,780,1,1,777,1,1,1,702122,706922,707699,702902,107511,61,594.611,595.391,599.411,600.188,28.413,260.009,491.605,231.624,463.221,694.83
2,bas,axc,1,DMCC8033964,bas_axc_run1_DMCC8033964,BY,1600,F,C,white,center,1,1,710,1,1,609,1,1,1,709322,714121,714730,710032,107511,62,601.811,602.521,606.61,607.219,28.413,260.009,491.605,231.624,463.221,694.83
2,bas,axc,1,DMCC8033964,bas_axc_run1_DMCC8033964,AX,2800,A,X,white,center,1,2,691,1,1,456,1,2,1,716521,721321,721777,717212,107511,63,609.01,609.701,613.81,614.266,28.413,260.009,491.605,231.624,463.221,694.83
2,bas,axc,1,DMCC8033964,bas_axc_run1_DMCC8033964,AX,4000,A,X,white,center,1,2,808,1,1,547,1,2,1,724920,729720,730267,725728,107511,64,617.409,618.217,622.209,622.756,28.413,260.009,491.605,231.624,463.221,694.83
2,bas,axc,1,DMCC8033964,bas_axc_run1_DMCC8033964,BY,2800,M,P,white,center,1,1,653,1,1,579,1,1,1,734520,739319,739898,735173,107511,65,627.009,627.662,631.808,632.387,28.413,260.009,491.605,231.624,463.221,694.83
2,bas,axc,1,DMCC8033964,bas_axc_run1_DMCC8033964,AX,4000,A,X,white,center,1,2,661,1,1,551,1,2,1,742919,747719,748270,743580,107511,66,635.408,636.069,640.208,640.759,28.413,260.009,491.605,231.624,463.221,694.83
2,bas,axc,1,DMCC8033964,bas_axc_run1_DMCC8033964,AX,1600,A,X,white,center,1,2,745,1,1,555,1,2,1,752518,757318,757873,753263,107511,67,645.007,645.752,649.807,650.362,28.413,260.009,491.605,231.624,463.221,694.83
2,bas,axc,1,DMCC8033964,bas_axc_run1_DMCC8033964,BY,4000,T,N,white,center,1,1,735,1,1,645,1,1,1,759718,764518,765163,760453,107511,68,652.207,652.942,657.007,657.652,28.413,260.009,491.605,231.624,463.221,694.83
2,bas,axc,1,DMCC8033964,bas_axc_run1_DMCC8033964,BX,1600,C,X,white,center,1,1,630,1,1,629,1,1,1,769317,774117,774746,769947,107511,69,661.806,662.436,666.606,667.235,28.413,260.009,491.605,231.624,463.221,694.83
2,bas,axc,1,DMCC8033964,bas_axc_run1_DMCC8033964,Ang,2800,A,3,white,center,1,,651,1,1,0,1,,1,776517,781316,0,777168,107511,70,669.006,669.657,673.805,-107.511,28.413,260.009,491.605,231.624,463.221,694.83
2,bas,axc,1,DMCC8033964,bas_axc_run1_DMCC8033964,Bng,4000,M,9,white,center,1,,675,1,1,0,1,,1,784916,789716,0,785591,107511,71,677.405,678.08,682.205,-107.511,28.413,260.009,491.605,231.624,463.221,694.83
2,bas,axc,1,DMCC8033964,bas_axc_run1_DMCC8033964,Bng,2800,U,7,white,center,1,,672,1,1,0,1,,1,794529,799328,0,795201,107511,72,687.018,687.69,691.817,-107.511,28.413,260.009,491.605,231.624,463.221,694.83
2,bas,axc,2,DMCC8033964,bas_axc_run2_DMCC8033964,AX,1600,A,X,white,center,1,2,549,1,1,437,1,2,1,113390,118190,118627,113939,82776,1,30.614,31.163,35.414,35.851,28.414,260.011,491.607,231.626,463.236,694.832
2,bas,axc,2,DMCC8033964,bas_axc_run2_DMCC8033964,AX,1600,A,X,white,center,1,2,701,1,1,491,1,2,1,120590,125389,125880,121291,82776,2,37.814,38.515,42.613,43.104,28.414,260.011,491.607,231.626,463.236,694.832
2,bas,axc,2,DMCC8033964,bas_axc_run2_DMCC8033964,AY,4000,A,U,white,center,1,1,495,1,1,566,1,1,1,127789,132589,133155,128284,82776,3,45.013,45.508,49.813,50.379,28.414,260.011,491.607,231.626,463.236,694.832
2,bas,axc,2,DMCC8033964,bas_axc_run2_DMCC8033964,AX,1600,A,X,white,center,1,2,483,1,1,534,1,2,1,137388,142188,142722,137871,82776,4,54.612,55.095,59.412,59.946,28.414,260.011,491.607,231.626,463.236,694.832
2,bas,axc,2,DMCC8033964,bas_axc_run2_DMCC8033964,BY,2800,P,T,white,center,1,1,677,1,1,586,1,1,1,144588,149387,149973,145265,82776,5,61.812,62.489,66.611,67.197,28.414,260.011,491.607,231.626,463.236,694.832
2,bas,axc,2,DMCC8033964,bas_axc_run2_DMCC8033964,BX,4000,D,X,white,center,1,1,530,1,1,563,1,1,1,152987,157787,158350,153517,82776,6,70.211,70.741,75.011,75.574,28.414,260.011,491.607,231.626,463.236,694.832
2,bas,axc,2,DMCC8033964,bas_axc_run2_DMCC8033964,AY,2800,A,P,white,center,1,1,462,1,1,568,1,1,1,162586,167386,167954,163048,82776,7,79.81,80.272,84.61,85.178,28.414,260.011,491.607,231.626,463.236,694.832
2,bas,axc,2,DMCC8033964,bas_axc_run2_DMCC8033964,Bng,2800,C,7,white,center,1,,761,1,1,0,1,,1,170986,175785,0,171747,82776,8,88.21,88.971,93.009,-82.776,28.414,260.011,491.607,231.626,463.236,694.832
2,bas,axc,2,DMCC8033964,bas_axc_run2_DMCC8033964,AX,4000,A,X,white,center,1,2,599,1,1,547,1,2,1,179385,184185,184732,179984,82776,9,96.609,97.208,101.409,101.956,28.414,260.011,491.607,231.626,463.236,694.832
2,bas,axc,2,DMCC8033964,bas_axc_run2_DMCC8033964,Bng,2800,D,1,white,center,1,,704,1,1,0,1,,1,188984,193784,0,189688,82776,10,106.208,106.912,111.008,-82.776,28.414,260.011,491.607,231.626,463.236,694.832
2,bas,axc,2,DMCC8033964,bas_axc_run2_DMCC8033964,BY,1600,U,F,white,center,1,1,717,1,1,599,1,1,1,197384,202184,202783,198101,82776,11,114.608,115.325,119.408,120.007,28.414,260.011,491.607,231.626,463.236,694.832
2,bas,axc,2,DMCC8033964,bas_axc_run2_DMCC8033964,BY,4000,U,T,white,center,1,1,680,1,1,598,1,1,1,204583,209383,209981,205263,82776,12,121.807,122.487,126.607,127.205,28.414,260.011,491.607,231.626,463.236,694.832
2,bas,axc,2,DMCC8033964,bas_axc_run2_DMCC8033964,BY,4000,N,H,white,center,1,1,607,1,1,588,1,1,1,214183,218982,219570,214790,82776,13,131.407,132.014,136.206,136.794,28.414,260.011,491.607,231.626,463.236,694.832
2,bas,axc,2,DMCC8033964,bas_axc_run2_DMCC8033964,AX,1600,A,X,white,center,1,2,622,1,1,644,1,2,1,223782,228582,229226,224404,82776,14,141.006,141.628,145.806,146.45,28.414,260.011,491.607,231.626,463.236,694.832
2,bas,axc,2,DMCC8033964,bas_axc_run2_DMCC8033964,AX,2800,A,X,white,center,1,2,721,1,1,461,1,2,1,230995,235794,236255,231716,82776,15,148.219,148.94,153.018,153.479,28.414,260.011,491.607,231.626,463.236,694.832
2,bas,axc,2,DMCC8033964,bas_axc_run2_DMCC8033964,BY,1600,T,P,white,center,1,1,594,1,1,489,1,1,1,239394,244194,244683,239988,82776,16,156.618,157.212,161.418,161.907,28.414,260.011,491.607,231.626,463.236,694.832
2,bas,axc,2,DMCC8033964,bas_axc_run2_DMCC8033964,BY,2800,D,U,white,center,1,1,636,1,1,476,1,1,1,246594,251393,251869,247230,82776,17,163.818,164.454,168.617,169.093,28.414,260.011,491.607,231.626,463.236,694.832
2,bas,axc,2,DMCC8033964,bas_axc_run2_DMCC8033964,BX,4000,N,X,white,center,1,1,551,1,1,391,1,1,1,254993,259793,260184,255544,82776,18,172.217,172.768,177.017,177.408,28.414,260.011,491.607,231.626,463.236,694.832
2,bas,axc,2,DMCC8033964,bas_axc_run2_DMCC8033964,BY,4000,H,F,white,center,1,1,485,1,1,582,1,1,1,264592,269392,269974,265077,82776,19,181.816,182.301,186.616,187.198,28.414,260.011,491.607,231.626,463.236,694.832
2,bas,axc,2,DMCC8033964,bas_axc_run2_DMCC8033964,AX,4000,A,X,white,center,1,2,641,1,1,453,1,2,1,274192,278991,279444,274833,82776,20,191.416,192.057,196.215,196.668,28.414,260.011,491.607,231.626,463.236,694.832
2,bas,axc,2,DMCC8033964,bas_axc_run2_DMCC8033964,BY,1600,F,H,white,center,1,1,840,1,1,606,1,1,1,283791,288591,289197,284631,82776,21,201.015,201.855,205.815,206.421,28.414,260.011,491.607,231.626,463.236,694.832
2,bas,axc,2,DMCC8033964,bas_axc_run2_DMCC8033964,AX,2800,A,X,white,center,1,2,540,1,1,426,1,2,1,290990,295790,296216,291530,82776,22,208.214,208.754,213.014,213.44,28.414,260.011,491.607,231.626,463.236,694.832
2,bas,axc,2,DMCC8033964,bas_axc_run2_DMCC8033964,Ang,2800,A,6,white,center,1,,517,0,2,0,1,,0,299390,304189,0,299907,82776,23,216.614,217.131,221.413,-82.776,28.414,260.011,491.607,231.626,463.236,694.832
2,bas,axc,2,DMCC8033964,bas_axc_run2_DMCC8033964,Ang,1600,A,4,white,center,1,,533,1,1,0,1,,1,307789,312589,0,308322,82776,24,225.013,225.546,229.813,-82.776,28.414,260.011,491.607,231.626,463.236,694.832
2,bas,axc,2,DMCC8033964,bas_axc_run2_DMCC8033964,AX,1600,A,X,white,center,1,2,396,1,1,435,1,2,1,344986,349786,350221,345382,82776,25,262.21,262.606,267.01,267.445,28.414,260.011,491.607,231.626,463.236,694.832
2,bas,axc,2,DMCC8033964,bas_axc_run2_DMCC8033964,BX,4000,H,X,white,center,1,1,630,1,1,644,1,1,1,352186,356986,357630,352816,82776,26,269.41,270.04,274.21,274.854,28.414,260.011,491.607,231.626,463.236,694.832
2,bas,axc,2,DMCC8033964,bas_axc_run2_DMCC8033964,BY,1600,H,C,white,center,1,1,608,1,1,663,1,1,1,361785,366585,367248,362393,82776,27,279.009,279.617,283.809,284.472,28.414,260.011,491.607,231.626,463.236,694.832
2,bas,axc,2,DMCC8033964,bas_axc_run2_DMCC8033964,AX,2800,A,X,white,center,1,2,687,1,1,440,1,2,1,368985,373784,374224,369672,82776,28,286.209,286.896,291.008,291.448,28.414,260.011,491.607,231.626,463.236,694.832
2,bas,axc,2,DMCC8033964,bas_axc_run2_DMCC8033964,Bng,4000,N,2,white,center,1,,606,1,1,0,1,,1,377384,382184,0,377990,82776,29,294.608,295.214,299.408,-82.776,28.414,260.011,491.607,231.626,463.236,694.832
2,bas,axc,2,DMCC8033964,bas_axc_run2_DMCC8033964,AX,4000,A,X,white,center,1,2,678,1,1,485,1,2,1,386983,391783,392268,387661,82776,30,304.207,304.885,309.007,309.492,28.414,260.011,491.607,231.626,463.236,694.832
2,bas,axc,2,DMCC8033964,bas_axc_run2_DMCC8033964,AX,1600,A,X,white,center,1,2,538,1,1,544,1,2,1,396583,401382,401926,397121,82776,31,313.807,314.345,318.606,319.15,28.414,260.011,491.607,231.626,463.236,694.832
2,bas,axc,2,DMCC8033964,bas_axc_run2_DMCC8033964,AX,2800,A,X,white,center,1,2,493,1,1,481,1,2,1,403782,408582,409063,404275,82776,32,321.006,321.499,325.806,326.287,28.414,260.011,491.607,231.626,463.236,694.832
2,bas,axc,2,DMCC8033964,bas_axc_run2_DMCC8033964,AY,4000,A,M,white,center,1,1,359,1,1,670,1,1,1,412195,416994,417664,412554,82776,33,329.419,329.778,334.218,334.888,28.414,260.011,491.607,231.626,463.236,694.832
2,bas,axc,2,DMCC8033964,bas_axc_run2_DMCC8033964,AY,2800,A,C,white,center,1,1,559,1,1,576,1,1,1,421794,426594,427170,422353,82776,34,339.018,339.577,343.818,344.394,28.414,260.011,491.607,231.626,463.236,694.832
2,bas,axc,2,DMCC8033964,bas_axc_run2_DMCC8033964,Ang,1600,A,8,white,center,1,,512,1,1,0,1,,1,430193,434993,0,430705,82776,35,347.417,347.929,352.217,-82.776,28.414,260.011,491.607,231.626,463.236,694.832
2,bas,axc,2,DMCC8033964,bas_axc_run2_DMCC8033964,BX,2800,T,X,white,center,1,1,624,1,1,768,1,1,1,437393,442193,442961,438017,82776,36,354.617,355.241,359.417,360.185,28.414,260.011,491.607,231.626,463.236,694.832
2,bas,axc,2,DMCC8033964,bas_axc_run2_DMCC8033964,AX,4000,A,X,white,center,1,2,806,1,1,604,1,2,1,445792,450592,451196,446598,82776,37,363.016,363.822,367.816,368.42,28.414,260.011,491.607,231.626,463.236,694.832
2,bas,axc,2,DMCC8033964,bas_axc_run2_DMCC8033964,Ang,2800,A,2,white,center,1,,468,1,1,0,1,,1,455392,460191,0,455860,82776,38,372.616,373.084,377.415,-82.776,28.414,260.011,491.607,231.626,463.236,694.832
2,bas,axc,2,DMCC8033964,bas_axc_run2_DMCC8033964,BY,1600,N,D,white,center,1,1,632,1,1,651,1,1,1,463791,468591,469242,464423,82776,39,381.015,381.647,385.815,386.466,28.414,260.011,491.607,231.626,463.236,694.832
2,bas,axc,2,DMCC8033964,bas_axc_run2_DMCC8033964,AX,4000,A,X,white,center,1,2,580,1,1,479,1,2,1,470990,475790,476269,471570,82776,40,388.214,388.794,393.014,393.493,28.414,260.011,491.607,231.626,463.236,694.832
2,bas,axc,2,DMCC8033964,bas_axc_run2_DMCC8033964,BY,4000,C,N,white,center,1,1,634,1,1,632,1,1,1,480590,485389,486021,481224,82776,41,397.814,398.448,402.613,403.245,28.414,260.011,491.607,231.626,463.236,694.832
2,bas,axc,2,DMCC8033964,bas_axc_run2_DMCC8033964,Bng,2800,F,3,white,center,1,,682,1,1,0,1,,1,490189,494989,0,490871,82776,42,407.413,408.095,412.213,-82.776,28.414,260.011,491.607,231.626,463.236,694.832
2,bas,axc,2,DMCC8033964,bas_axc_run2_DMCC8033964,BY,1600,T,H,white,center,1,1,0,0,,626,1,1,0,498588,503388,504014,0,82776,43,415.812,-82.776,420.612,421.238,28.414,260.011,491.607,231.626,463.236,694.832
2,bas,axc,2,DMCC8033964,bas_axc_run2_DMCC8033964,BY,4000,F,D,white,center,1,1,713,1,1,849,1,1,1,505788,510588,511437,506501,82776,44,423.012,423.725,427.812,428.661,28.414,260.011,491.607,231.626,463.236,694.832
2,bas,axc,2,DMCC8033964,bas_axc_run2_DMCC8033964,BY,1600,D,C,white,center,1,1,537,1,1,568,1,1,1,515387,520187,520755,515924,82776,45,432.611,433.148,437.411,437.979,28.414,260.011,491.607,231.626,463.236,694.832
2,bas,axc,2,DMCC8033964,bas_axc_run2_DMCC8033964,BY,2800,M,N,white,center,1,1,417,1,1,322,1,1,1,522587,527386,527708,523004,82776,46,439.811,440.228,444.61,444.932,28.414,260.011,491.607,231.626,463.236,694.832
2,bas,axc,2,DMCC8033964,bas_axc_run2_DMCC8033964,AX,1600,A,X,white,center,1,2,447,1,1,365,1,2,1,530986,535786,536151,531433,82776,47,448.21,448.657,453.01,453.375,28.414,260.011,491.607,231.626,463.236,694.832
2,bas,axc,2,DMCC8033964,bas_axc_run2_DMCC8033964,BY,2800,C,F,white,center,1,1,368,1,1,369,1,1,1,538186,542985,543354,538554,82776,48,455.41,455.778,460.209,460.578,28.414,260.011,491.607,231.626,463.236,694.832
2,bas,axc,2,DMCC8033964,bas_axc_run2_DMCC8033964,Ang,4000,A,6,white,center,1,,343,1,1,0,1,,1,576583,581382,0,576926,82776,49,493.807,494.15,498.606,-82.776,28.414,260.011,491.607,231.626,463.236,694.832
2,bas,axc,2,DMCC8033964,bas_axc_run2_DMCC8033964,BY,2800,P,C,white,center,1,1,452,1,1,488,1,1,1,586182,590982,591470,586634,82776,50,503.406,503.858,508.206,508.694,28.414,260.011,491.607,231.626,463.236,694.832
2,bas,axc,2,DMCC8033964,bas_axc_run2_DMCC8033964,BY,4000,M,U,white,center,1,1,434,1,1,494,1,1,1,594595,599394,599888,595029,82776,51,511.819,512.253,516.618,517.112,28.414,260.011,491.607,231.626,463.236,694.832
2,bas,axc,2,DMCC8033964,bas_axc_run2_DMCC8033964,AX,4000,A,X,white,center,1,2,402,1,1,365,1,2,1,604194,608994,609359,604596,82776,52,521.418,521.82,526.218,526.583,28.414,260.011,491.607,231.626,463.236,694.832
2,bas,axc,2,DMCC8033964,bas_axc_run2_DMCC8033964,Ang,1600,A,8,white,center,1,,410,1,1,0,1,,1,613793,618593,0,614203,82776,53,531.017,531.427,535.817,-82.776,28.414,260.011,491.607,231.626,463.236,694.832
2,bas,axc,2,DMCC8033964,bas_axc_run2_DMCC8033964,BX,1600,N,X,white,center,1,1,568,1,1,559,1,1,1,620993,625792,626351,621561,82776,54,538.217,538.785,543.016,543.575,28.414,260.011,491.607,231.626,463.236,694.832
2,bas,axc,2,DMCC8033964,bas_axc_run2_DMCC8033964,BY,1600,C,F,white,center,1,1,326,1,1,461,1,1,1,628192,632992,633453,628518,82776,55,545.416,545.742,550.216,550.677,28.414,260.011,491.607,231.626,463.236,694.832
2,bas,axc,2,DMCC8033964,bas_axc_run2_DMCC8033964,BY,4000,C,N,white,center,1,1,582,1,1,390,1,1,1,635392,640191,640581,635974,82776,56,552.616,553.198,557.415,557.805,28.414,260.011,491.607,231.626,463.236,694.832
2,bas,axc,2,DMCC8033964,bas_axc_run2_DMCC8033964,AX,2800,A,X,white,center,1,2,364,1,1,378,1,2,1,644991,649791,650169,645355,82776,57,562.215,562.579,567.015,567.393,28.414,260.011,491.607,231.626,463.236,694.832
2,bas,axc,2,DMCC8033964,bas_axc_run2_DMCC8033964,BX,2800,D,X,white,center,1,1,378,1,1,480,1,1,1,653390,658190,658670,653768,82776,58,570.614,570.992,575.414,575.894,28.414,260.011,491.607,231.626,463.236,694.832
2,bas,axc,2,DMCC8033964,bas_axc_run2_DMCC8033964,Bng,2800,N,4,white,center,1,,557,1,1,0,1,,1,661790,666589,0,662347,82776,59,579.014,579.571,583.813,-82.776,28.414,260.011,491.607,231.626,463.236,694.832
2,bas,axc,2,DMCC8033964,bas_axc_run2_DMCC8033964,AX,1600,A,X,white,center,1,2,524,1,1,517,1,2,1,670189,674989,675506,670713,82776,60,587.413,587.937,592.213,592.73,28.414,260.011,491.607,231.626,463.236,694.832
2,bas,axc,2,DMCC8033964,bas_axc_run2_DMCC8033964,BY,1600,U,F,white,center,1,1,616,1,1,533,1,1,1,677389,682188,682721,678005,82776,61,594.613,595.229,599.412,599.945,28.414,260.011,491.607,231.626,463.236,694.832
2,bas,axc,2,DMCC8033964,bas_axc_run2_DMCC8033964,BY,2800,H,C,white,center,1,1,542,1,1,575,1,1,1,684588,689388,689963,685130,82776,62,601.812,602.354,606.612,607.187,28.414,260.011,491.607,231.626,463.236,694.832
2,bas,axc,2,DMCC8033964,bas_axc_run2_DMCC8033964,AX,1600,A,X,white,center,1,2,558,1,1,448,1,2,1,692988,697787,698235,693546,82776,63,610.212,610.77,615.011,615.459,28.414,260.011,491.607,231.626,463.236,694.832
2,bas,axc,2,DMCC8033964,bas_axc_run2_DMCC8033964,Bng,4000,T,1,white,center,1,,392,1,1,0,1,,1,700187,704987,0,700579,82776,64,617.411,617.803,622.211,-82.776,28.414,260.011,491.607,231.626,463.236,694.832
2,bas,axc,2,DMCC8033964,bas_axc_run2_DMCC8033964,AY,2800,A,F,white,center,1,1,578,1,1,767,1,1,1,709786,714586,715353,710364,82776,65,627.01,627.588,631.81,632.577,28.414,260.011,491.607,231.626,463.236,694.832
2,bas,axc,2,DMCC8033964,bas_axc_run2_DMCC8033964,AY,4000,A,M,white,center,1,1,368,1,1,612,1,1,1,718186,722985,723597,718554,82776,66,635.41,635.778,640.209,640.821,28.414,260.011,491.607,231.626,463.236,694.832
2,bas,axc,2,DMCC8033964,bas_axc_run2_DMCC8033964,BY,2800,H,F,white,center,1,1,510,1,1,562,1,1,1,727785,732585,733147,728295,82776,67,645.009,645.519,649.809,650.371,28.414,260.011,491.607,231.626,463.236,694.832
2,bas,axc,2,DMCC8033964,bas_axc_run2_DMCC8033964,AX,4000,A,X,white,center,1,2,554,1,1,490,1,2,1,736184,740984,741474,736738,82776,68,653.408,653.962,658.208,658.698,28.414,260.011,491.607,231.626,463.236,694.832
2,bas,axc,2,DMCC8033964,bas_axc_run2_DMCC8033964,AX,1600,A,X,white,center,1,2,528,1,1,469,1,2,1,745784,750583,751052,746312,82776,69,663.008,663.536,667.807,668.276,28.414,260.011,491.607,231.626,463.236,694.832
2,bas,axc,2,DMCC8033964,bas_axc_run2_DMCC8033964,AX,2800,A,X,white,center,1,2,535,1,1,472,1,2,1,752983,757783,758255,753518,82776,70,670.207,670.742,675.007,675.479,28.414,260.011,491.607,231.626,463.236,694.832
2,bas,axc,2,DMCC8033964,bas_axc_run2_DMCC8033964,AX,1600,A,X,white,center,1,2,438,1,1,372,1,2,1,761383,766182,766554,761821,82776,71,678.607,679.045,683.406,683.778,28.414,260.011,491.607,231.626,463.236,694.832
2,bas,axc,2,DMCC8033964,bas_axc_run2_DMCC8033964,BY,4000,T,P,white,center,1,1,587,1,1,523,1,1,1,768582,773382,773905,769169,82776,72,685.806,686.393,690.606,691.129,28.414,260.011,491.607,231.626,463.236,694.832
2,pro,axc,1,DMCC8033964,pro_axc_run1_DMCC8033964,BY,1600,H,C,white,center,1,1,326,1,1,395,1,1,1,199975,204774,205169,200301,169365,1,30.61,30.936,35.409,35.804,28.41,260.009,491.608,231.637,463.236,694.836
2,pro,axc,1,DMCC8033964,pro_axc_run1_DMCC8033964,BY,1600,P,C,white,center,1,1,324,1,1,294,1,1,1,207174,211974,212268,207498,169365,2,37.809,38.133,42.609,42.903,28.41,260.009,491.608,231.637,463.236,694.836
2,pro,axc,1,DMCC8033964,pro_axc_run1_DMCC8033964,AX,4000,A,X,white,center,1,2,276,1,1,194,1,2,1,214374,219174,219368,214650,169365,3,45.009,45.285,49.809,50.003,28.41,260.009,491.608,231.637,463.236,694.836
2,pro,axc,1,DMCC8033964,pro_axc_run1_DMCC8033964,AY,1600,A,P,white,center,1,1,289,1,1,440,1,1,1,223973,228773,229213,224262,169365,4,54.608,54.897,59.408,59.848,28.41,260.009,491.608,231.637,463.236,694.836
2,pro,axc,1,DMCC8033964,pro_axc_run1_DMCC8033964,AX,2800,A,X,white,center,1,2,252,1,1,245,1,2,1,231173,235973,236218,231425,169365,5,61.808,62.06,66.608,66.853,28.41,260.009,491.608,231.637,463.236,694.836
2,pro,axc,1,DMCC8033964,pro_axc_run1_DMCC8033964,AX,2800,A,X,white,center,1,2,310,1,1,227,1,2,1,239572,244372,244599,239882,169365,6,70.207,70.517,75.007,75.234,28.41,260.009,491.608,231.637,463.236,694.836
2,pro,axc,1,DMCC8033964,pro_axc_run1_DMCC8033964,BY,1600,D,C,white,center,1,1,250,1,1,285,1,1,1,247972,252772,253057,248222,169365,7,78.607,78.857,83.407,83.692,28.41,260.009,491.608,231.637,463.236,694.836
2,pro,axc,1,DMCC8033964,pro_axc_run1_DMCC8033964,Ang,4000,A,4,white,center,1,,226,1,1,368,0,1,0,255171,259971,260339,255397,169365,8,85.806,86.032,90.606,90.974,28.41,260.009,491.608,231.637,463.236,694.836
2,pro,axc,1,DMCC8033964,pro_axc_run1_DMCC8033964,BY,4000,U,T,white,center,1,1,276,1,1,290,1,1,1,264771,269570,269860,265047,169365,9,95.406,95.682,100.205,100.495,28.41,260.009,491.608,231.637,463.236,694.836
2,pro,axc,1,DMCC8033964,pro_axc_run1_DMCC8033964,BY,2800,N,D,white,center,1,1,246,1,1,260,1,1,1,274370,279170,279430,274616,169365,10,105.005,105.251,109.805,110.065,28.41,260.009,491.608,231.637,463.236,694.836
2,pro,axc,1,DMCC8033964,pro_axc_run1_DMCC8033964,BY,2800,M,U,white,center,1,1,322,1,1,294,1,1,1,282770,287583,287877,283092,169365,11,113.405,113.727,118.218,118.512,28.41,260.009,491.608,231.637,463.236,694.836
2,pro,axc,1,DMCC8033964,pro_axc_run1_DMCC8033964,AY,4000,A,F,white,center,1,1,251,1,1,463,1,1,1,291182,295982,296445,291433,169365,12,121.817,122.068,126.617,127.08,28.41,260.009,491.608,231.637,463.236,694.836
2,pro,axc,1,DMCC8033964,pro_axc_run1_DMCC8033964,Bng,2800,C,3,white,center,1,,308,1,1,246,0,1,0,300782,305582,305828,301090,169365,13,131.417,131.725,136.217,136.463,28.41,260.009,491.608,231.637,463.236,694.836
2,pro,axc,1,DMCC8033964,pro_axc_run1_DMCC8033964,AX,1600,A,X,white,center,1,2,393,1,1,316,1,2,1,309181,313981,314297,309574,169365,14,139.816,140.209,144.616,144.932,28.41,260.009,491.608,231.637,463.236,694.836
2,pro,axc,1,DMCC8033964,pro_axc_run1_DMCC8033964,AX,4000,A,X,white,center,1,2,287,1,1,310,0,1,0,316381,321181,321491,316668,169365,15,147.016,147.303,151.816,152.126,28.41,260.009,491.608,231.637,463.236,694.836
2,pro,axc,1,DMCC8033964,pro_axc_run1_DMCC8033964,BX,4000,H,X,white,center,1,1,375,1,1,293,1,1,1,325980,330780,331073,326355,169365,16,156.615,156.99,161.415,161.708,28.41,260.009,491.608,231.637,463.236,694.836
2,pro,axc,1,DMCC8033964,pro_axc_run1_DMCC8033964,BX,2800,T,X,white,center,1,1,326,1,1,340,1,1,1,335580,340379,340719,335906,169365,17,166.215,166.541,171.014,171.354,28.41,260.009,491.608,231.637,463.236,694.836
2,pro,axc,1,DMCC8033964,pro_axc_run1_DMCC8033964,BY,4000,D,U,white,center,1,1,198,1,1,313,1,1,1,343979,348779,349092,344177,169365,18,174.614,174.812,179.414,179.727,28.41,260.009,491.608,231.637,463.236,694.836
2,pro,axc,1,DMCC8033964,pro_axc_run1_DMCC8033964,AX,2800,A,X,white,center,1,2,260,1,1,316,1,2,1,353579,358378,358694,353839,169365,19,184.214,184.474,189.013,189.329,28.41,260.009,491.608,231.637,463.236,694.836
2,pro,axc,1,DMCC8033964,pro_axc_run1_DMCC8033964,Ang,1600,A,6,white,center,1,,353,1,1,0,1,,1,361978,366778,0,362331,169365,20,192.613,192.966,197.413,-169.365,28.41,260.009,491.608,231.637,463.236,694.836
2,pro,axc,1,DMCC8033964,pro_axc_run1_DMCC8033964,AX,1600,A,X,white,center,1,2,281,1,1,287,1,2,1,369178,373977,374264,369459,169365,21,199.813,200.094,204.612,204.899,28.41,260.009,491.608,231.637,463.236,694.836
2,pro,axc,1,DMCC8033964,pro_axc_run1_DMCC8033964,AX,1600,A,X,white,center,1,2,268,1,1,315,1,2,1,376377,381177,381492,376645,169365,22,207.012,207.28,211.812,212.127,28.41,260.009,491.608,231.637,463.236,694.836
2,pro,axc,1,DMCC8033964,pro_axc_run1_DMCC8033964,Bng,4000,M,8,white,center,1,,309,1,1,290,0,1,0,383577,388376,388666,383886,169365,23,214.212,214.521,219.011,219.301,28.41,260.009,491.608,231.637,463.236,694.836
2,pro,axc,1,DMCC8033964,pro_axc_run1_DMCC8033964,BY,2800,T,H,white,center,1,1,310,1,1,311,1,1,1,393176,397976,398287,393486,169365,24,223.811,224.121,228.611,228.922,28.41,260.009,491.608,231.637,463.236,694.836
2,pro,axc,1,DMCC8033964,pro_axc_run1_DMCC8033964,AX,1600,A,X,white,center,1,2,255,1,1,300,1,2,1,431574,436374,436674,431829,169365,25,262.209,262.464,267.009,267.309,28.41,260.009,491.608,231.637,463.236,694.836
2,pro,axc,1,DMCC8033964,pro_axc_run1_DMCC8033964,BY,4000,T,P,white,center,1,1,334,1,1,448,1,1,1,438773,443573,444021,439107,169365,26,269.408,269.742,274.208,274.656,28.41,260.009,491.608,231.637,463.236,694.836
2,pro,axc,1,DMCC8033964,pro_axc_run1_DMCC8033964,AX,2800,A,X,white,center,1,2,298,1,1,318,1,2,1,448373,453173,453491,448671,169365,27,279.008,279.306,283.808,284.126,28.41,260.009,491.608,231.637,463.236,694.836
2,pro,axc,1,DMCC8033964,pro_axc_run1_DMCC8033964,BY,2800,U,F,white,center,1,1,339,1,1,346,1,1,1,456772,461572,461918,457111,169365,28,287.407,287.746,292.207,292.553,28.41,260.009,491.608,231.637,463.236,694.836
2,pro,axc,1,DMCC8033964,pro_axc_run1_DMCC8033964,AY,4000,A,M,white,center,1,1,310,1,1,244,0,2,0,465172,469971,470215,465482,169365,29,295.807,296.117,300.606,300.85,28.41,260.009,491.608,231.637,463.236,694.836
2,pro,axc,1,DMCC8033964,pro_axc_run1_DMCC8033964,Bng,2800,D,3,white,center,1,,303,1,1,0,1,,1,474771,479571,0,475074,169365,30,305.406,305.709,310.206,-169.365,28.41,260.009,491.608,231.637,463.236,694.836
2,pro,axc,1,DMCC8033964,pro_axc_run1_DMCC8033964,BY,4000,C,N,white,center,1,1,284,1,1,315,1,1,1,483171,487970,488285,483455,169365,31,313.806,314.09,318.605,318.92,28.41,260.009,491.608,231.637,463.236,694.836
2,pro,axc,1,DMCC8033964,pro_axc_run1_DMCC8033964,AX,4000,A,X,white,center,1,2,209,1,1,322,1,2,1,492770,497570,497892,492979,169365,32,323.405,323.614,328.205,328.527,28.41,260.009,491.608,231.637,463.236,694.836
2,pro,axc,1,DMCC8033964,pro_axc_run1_DMCC8033964,AX,2800,A,X,white,center,1,2,258,1,1,254,1,2,1,502383,507183,507437,502641,169365,33,333.018,333.276,337.818,338.072,28.41,260.009,491.608,231.637,463.236,694.836
2,pro,axc,1,DMCC8033964,pro_axc_run1_DMCC8033964,BY,1600,N,H,white,center,1,1,283,1,1,303,1,1,1,510782,515582,515885,511065,169365,34,341.417,341.7,346.217,346.52,28.41,260.009,491.608,231.637,463.236,694.836
2,pro,axc,1,DMCC8033964,pro_axc_run1_DMCC8033964,Ang,1600,A,2,white,center,1,,270,1,1,0,1,,1,517982,522782,0,518252,169365,35,348.617,348.887,353.417,-169.365,28.41,260.009,491.608,231.637,463.236,694.836
2,pro,axc,1,DMCC8033964,pro_axc_run1_DMCC8033964,BY,1600,H,F,white,center,1,1,210,1,1,340,1,1,1,525181,529981,530321,525391,169365,36,355.816,356.026,360.616,360.956,28.41,260.009,491.608,231.637,463.236,694.836
2,pro,axc,1,DMCC8033964,pro_axc_run1_DMCC8033964,Bng,2800,F,3,white,center,1,,275,1,1,0,1,,1,532381,537181,0,532656,169365,37,363.016,363.291,367.816,-169.365,28.41,260.009,491.608,231.637,463.236,694.836
2,pro,axc,1,DMCC8033964,pro_axc_run1_DMCC8033964,BX,1600,D,X,white,center,1,1,306,1,1,340,1,1,1,540780,545580,545920,541086,169365,38,371.415,371.721,376.215,376.555,28.41,260.009,491.608,231.637,463.236,694.836
2,pro,axc,1,DMCC8033964,pro_axc_run1_DMCC8033964,AX,2800,A,X,white,center,1,2,250,1,1,324,1,2,1,547980,552780,553104,548230,169365,39,378.615,378.865,383.415,383.739,28.41,260.009,491.608,231.637,463.236,694.836
2,pro,axc,1,DMCC8033964,pro_axc_run1_DMCC8033964,BY,4000,P,T,white,center,1,1,288,1,1,319,1,1,1,556379,561179,561498,556667,169365,40,387.014,387.302,391.814,392.133,28.41,260.009,491.608,231.637,463.236,694.836
2,pro,axc,1,DMCC8033964,pro_axc_run1_DMCC8033964,BY,1600,M,N,white,center,1,1,333,1,1,356,1,1,1,565979,570779,571135,566312,169365,41,396.614,396.947,401.414,401.77,28.41,260.009,491.608,231.637,463.236,694.836
2,pro,axc,1,DMCC8033964,pro_axc_run1_DMCC8033964,AX,2800,A,X,white,center,1,2,247,1,1,304,1,2,1,573178,577978,578282,573425,169365,42,403.813,404.06,408.613,408.917,28.41,260.009,491.608,231.637,463.236,694.836
2,pro,axc,1,DMCC8033964,pro_axc_run1_DMCC8033964,Ang,4000,A,8,white,center,1,,244,1,1,0,1,,1,581578,586378,0,581822,169365,43,412.213,412.457,417.013,-169.365,28.41,260.009,491.608,231.637,463.236,694.836
2,pro,axc,1,DMCC8033964,pro_axc_run1_DMCC8033964,BY,2800,F,D,white,center,1,1,320,1,1,387,1,1,1,591177,595977,596364,591497,169365,44,421.812,422.132,426.612,426.999,28.41,260.009,491.608,231.637,463.236,694.836
2,pro,axc,1,DMCC8033964,pro_axc_run1_DMCC8033964,AX,4000,A,X,white,center,1,2,305,1,1,343,1,2,1,599577,604377,604720,599882,169365,45,430.212,430.517,435.012,435.355,28.41,260.009,491.608,231.637,463.236,694.836
2,pro,axc,1,DMCC8033964,pro_axc_run1_DMCC8033964,BX,4000,N,X,white,center,1,1,299,1,1,324,1,1,1,609176,613976,614300,609475,169365,46,439.811,440.11,444.611,444.935,28.41,260.009,491.608,231.637,463.236,694.836
2,pro,axc,1,DMCC8033964,pro_axc_run1_DMCC8033964,AY,1600,A,U,white,center,1,1,309,1,1,435,1,1,1,618776,623575,624010,619085,169365,47,449.411,449.72,454.21,454.645,28.41,260.009,491.608,231.637,463.236,694.836
2,pro,axc,1,DMCC8033964,pro_axc_run1_DMCC8033964,AX,1600,A,X,white,center,1,2,313,1,1,248,1,2,1,625975,630775,631023,626288,169365,48,456.61,456.923,461.41,461.658,28.41,260.009,491.608,231.637,463.236,694.836
2,pro,axc,1,DMCC8033964,pro_axc_run1_DMCC8033964,AX,2800,A,X,white,center,1,2,277,1,1,264,1,2,1,663173,667973,668237,663450,169365,49,493.808,494.085,498.608,498.872,28.41,260.009,491.608,231.637,463.236,694.836
2,pro,axc,1,DMCC8033964,pro_axc_run1_DMCC8033964,AX,4000,A,X,white,center,1,2,296,1,1,319,1,2,1,671572,676372,676691,671868,169365,50,502.207,502.503,507.007,507.326,28.41,260.009,491.608,231.637,463.236,694.836
2,pro,axc,1,DMCC8033964,pro_axc_run1_DMCC8033964,BY,1600,F,H,white,center,1,1,312,1,1,324,1,1,1,681172,685971,686295,681484,169365,51,511.807,512.119,516.606,516.93,28.41,260.009,491.608,231.637,463.236,694.836
2,pro,axc,1,DMCC8033964,pro_axc_run1_DMCC8033964,Bng,2800,T,1,white,center,1,,286,1,1,0,1,,1,688371,693171,0,688657,169365,52,519.006,519.292,523.806,-169.365,28.41,260.009,491.608,231.637,463.236,694.836
2,pro,axc,1,DMCC8033964,pro_axc_run1_DMCC8033964,BY,1600,C,F,white,center,1,1,282,1,1,330,1,1,1,696771,701571,701901,697053,169365,53,527.406,527.688,532.206,532.536,28.41,260.009,491.608,231.637,463.236,694.836
2,pro,axc,1,DMCC8033964,pro_axc_run1_DMCC8033964,BX,1600,T,X,white,center,1,1,261,1,1,336,1,1,1,703970,708770,709106,704231,169365,54,534.605,534.866,539.405,539.741,28.41,260.009,491.608,231.637,463.236,694.836
2,pro,axc,1,DMCC8033964,pro_axc_run1_DMCC8033964,Ang,1600,A,6,white,center,1,,247,1,1,0,1,,1,711170,715970,0,711417,169365,55,541.805,542.052,546.605,-169.365,28.41,260.009,491.608,231.637,463.236,694.836
2,pro,axc,1,DMCC8033964,pro_axc_run1_DMCC8033964,AY,4000,A,C,white,center,1,1,262,1,1,466,1,1,1,718383,723183,723649,718645,169365,56,549.018,549.28,553.818,554.284,28.41,260.009,491.608,231.637,463.236,694.836
2,pro,axc,1,DMCC8033964,pro_axc_run1_DMCC8033964,BX,4000,D,X,white,center,1,1,381,1,1,323,1,1,1,727982,732782,733105,728363,169365,57,558.617,558.998,563.417,563.74,28.41,260.009,491.608,231.637,463.236,694.836
2,pro,axc,1,DMCC8033964,pro_axc_run1_DMCC8033964,Bng,4000,D,1,white,center,1,,254,1,1,0,1,,1,737582,742381,0,737836,169365,58,568.217,568.471,573.016,-169.365,28.41,260.009,491.608,231.637,463.236,694.836
2,pro,axc,1,DMCC8033964,pro_axc_run1_DMCC8033964,AY,2800,A,P,white,center,1,1,280,1,1,414,1,1,1,747181,751981,752395,747461,169365,59,577.816,578.096,582.616,583.03,28.41,260.009,491.608,231.637,463.236,694.836
2,pro,axc,1,DMCC8033964,pro_axc_run1_DMCC8033964,Ang,2800,A,8,white,center,1,,245,1,1,0,1,,1,755581,760380,0,755826,169365,60,586.216,586.461,591.015,-169.365,28.41,260.009,491.608,231.637,463.236,694.836
2,pro,axc,1,DMCC8033964,pro_axc_run1_DMCC8033964,AX,4000,A,X,white,center,1,2,258,1,1,317,1,2,1,763980,768780,769097,764238,169365,61,594.615,594.873,599.415,599.732,28.41,260.009,491.608,231.637,463.236,694.836
2,pro,axc,1,DMCC8033964,pro_axc_run1_DMCC8033964,BY,2800,H,C,white,center,1,1,299,1,1,390,1,1,1,773579,778379,778769,773878,169365,62,604.214,604.513,609.014,609.404,28.41,260.009,491.608,231.637,463.236,694.836
2,pro,axc,1,DMCC8033964,pro_axc_run1_DMCC8033964,BY,4000,H,F,white,center,1,1,287,1,1,342,1,1,1,781979,786779,787121,782266,169365,63,612.614,612.901,617.414,617.756,28.41,260.009,491.608,231.637,463.236,694.836
2,pro,axc,1,DMCC8033964,pro_axc_run1_DMCC8033964,AX,2800,A,X,white,center,1,2,282,1,1,250,1,2,1,791578,796378,796628,791860,169365,64,622.213,622.495,627.013,627.263,28.41,260.009,491.608,231.637,463.236,694.836
2,pro,axc,1,DMCC8033964,pro_axc_run1_DMCC8033964,AX,2800,A,X,white,center,1,2,229,1,1,266,1,2,1,799978,804778,805044,800207,169365,65,630.613,630.842,635.413,635.679,28.41,260.009,491.608,231.637,463.236,694.836
2,pro,axc,1,DMCC8033964,pro_axc_run1_DMCC8033964,AX,4000,A,X,white,center,1,2,295,1,1,281,1,2,1,808377,813177,813458,808672,169365,66,639.012,639.307,643.812,644.093,28.41,260.009,491.608,231.637,463.236,694.836
2,pro,axc,1,DMCC8033964,pro_axc_run1_DMCC8033964,BY,1600,M,N,white,center,1,1,318,1,1,330,1,1,1,817977,822776,823106,818295,169365,67,648.612,648.93,653.411,653.741,28.41,260.009,491.608,231.637,463.236,694.836
2,pro,axc,1,DMCC8033964,pro_axc_run1_DMCC8033964,AX,4000,A,X,white,center,1,2,256,1,1,196,1,2,1,825176,829976,830172,825432,169365,68,655.811,656.067,660.611,660.807,28.41,260.009,491.608,231.637,463.236,694.836
2,pro,axc,1,DMCC8033964,pro_axc_run1_DMCC8033964,AX,1600,A,X,white,center,1,2,294,1,1,269,1,2,1,834776,839575,839844,835070,169365,69,665.411,665.705,670.21,670.479,28.41,260.009,491.608,231.637,463.236,694.836
2,pro,axc,1,DMCC8033964,pro_axc_run1_DMCC8033964,BY,1600,F,D,white,center,1,1,289,1,1,301,1,1,1,841975,846775,847076,842264,169365,70,672.61,672.899,677.41,677.711,28.41,260.009,491.608,231.637,463.236,694.836
2,pro,axc,1,DMCC8033964,pro_axc_run1_DMCC8033964,BY,1600,T,H,white,center,1,1,287,1,1,312,1,1,1,849175,853974,854286,849462,169365,71,679.81,680.097,684.609,684.921,28.41,260.009,491.608,231.637,463.236,694.836
2,pro,axc,1,DMCC8033964,pro_axc_run1_DMCC8033964,BY,2800,F,H,white,center,1,1,310,1,1,394,1,1,1,856374,861174,861568,856684,169365,72,687.009,687.319,691.809,692.203,28.41,260.009,491.608,231.637,463.236,694.836
2,pro,axc,2,DMCC8033964,pro_axc_run2_DMCC8033964,BY,2800,U,P,white,center,1,1,315,1,1,373,1,1,1,67335,72135,72508,67650,36722,1,30.613,30.928,35.413,35.786,28.413,260.012,491.625,231.641,463.226,694.839
2,pro,axc,2,DMCC8033964,pro_axc_run2_DMCC8033964,AX,2800,A,X,white,center,1,2,274,1,1,265,1,2,1,75734,80534,80799,76008,36722,2,39.012,39.286,43.812,44.077,28.413,260.012,491.625,231.641,463.226,694.839
2,pro,axc,2,DMCC8033964,pro_axc_run2_DMCC8033964,AX,4000,A,X,white,center,1,2,279,1,1,278,1,2,1,84134,88934,89212,84413,36722,3,47.412,47.691,52.212,52.49,28.413,260.012,491.625,231.641,463.226,694.839
2,pro,axc,2,DMCC8033964,pro_axc_run2_DMCC8033964,AX,4000,A,X,white,center,1,2,275,1,1,336,1,2,1,93733,98533,98869,94008,36722,4,57.011,57.286,61.811,62.147,28.413,260.012,491.625,231.641,463.226,694.839
2,pro,axc,2,DMCC8033964,pro_axc_run2_DMCC8033964,Bng,1600,D,2,white,center,1,,404,1,1,360,0,1,0,103333,108146,108506,103737,36722,5,66.611,67.015,71.424,71.784,28.413,260.012,491.625,231.641,463.226,694.839
2,pro,axc,2,DMCC8033964,pro_axc_run2_DMCC8033964,Ang,2800,A,7,white,center,1,,314,1,1,0,1,,1,110546,115345,0,110860,36722,6,73.824,74.138,78.623,-36.722,28.413,260.012,491.625,231.641,463.226,694.839
2,pro,axc,2,DMCC8033964,pro_axc_run2_DMCC8033964,AY,4000,A,H,white,center,1,1,316,1,1,353,0,2,0,118945,123745,124098,119261,36722,7,82.223,82.539,87.023,87.376,28.413,260.012,491.625,231.641,463.226,694.839
2,pro,axc,2,DMCC8033964,pro_axc_run2_DMCC8033964,Bng,1600,C,8,white,center,1,,394,1,1,0,1,,1,128545,133344,0,128939,36722,8,91.823,92.217,96.622,-36.722,28.413,260.012,491.625,231.641,463.226,694.839
2,pro,axc,2,DMCC8033964,pro_axc_run2_DMCC8033964,BY,4000,M,F,white,center,1,1,335,1,1,401,1,1,1,135744,140544,140945,136079,36722,9,99.022,99.357,103.822,104.223,28.413,260.012,491.625,231.641,463.226,694.839
2,pro,axc,2,DMCC8033964,pro_axc_run2_DMCC8033964,Ang,1600,A,5,white,center,1,,319,1,1,0,1,,1,145344,150143,0,145663,36722,10,108.622,108.941,113.421,-36.722,28.413,260.012,491.625,231.641,463.226,694.839
2,pro,axc,2,DMCC8033964,pro_axc_run2_DMCC8033964,BY,1600,H,U,white,center,1,1,315,1,1,421,1,1,1,152543,157343,157764,152858,36722,11,115.821,116.136,120.621,121.042,28.413,260.012,491.625,231.641,463.226,694.839
2,pro,axc,2,DMCC8033964,pro_axc_run2_DMCC8033964,BY,2800,F,M,white,center,1,1,287,1,1,344,1,1,1,159743,164542,164886,160030,36722,12,123.021,123.308,127.82,128.164,28.413,260.012,491.625,231.641,463.226,694.839
2,pro,axc,2,DMCC8033964,pro_axc_run2_DMCC8033964,BY,4000,U,D,white,center,1,1,320,1,1,360,1,1,1,168142,172942,173302,168462,36722,13,131.42,131.74,136.22,136.58,28.413,260.012,491.625,231.641,463.226,694.839
2,pro,axc,2,DMCC8033964,pro_axc_run2_DMCC8033964,AX,4000,A,X,white,center,1,2,348,1,1,450,1,2,1,177742,182541,182991,178090,36722,14,141.02,141.368,145.819,146.269,28.413,260.012,491.625,231.641,463.226,694.839
2,pro,axc,2,DMCC8033964,pro_axc_run2_DMCC8033964,AY,4000,A,N,white,center,1,1,239,1,1,723,1,1,1,187341,192141,192864,187580,36722,15,150.619,150.858,155.419,156.142,28.413,260.012,491.625,231.641,463.226,694.839
2,pro,axc,2,DMCC8033964,pro_axc_run2_DMCC8033964,AX,1600,A,X,white,center,1,2,288,1,1,267,1,2,1,196940,201740,202007,197228,36722,16,160.218,160.506,165.018,165.285,28.413,260.012,491.625,231.641,463.226,694.839
2,pro,axc,2,DMCC8033964,pro_axc_run2_DMCC8033964,AX,2800,A,X,white,center,1,2,196,1,1,283,1,2,1,204140,208940,209223,204336,36722,17,167.418,167.614,172.218,172.501,28.413,260.012,491.625,231.641,463.226,694.839
2,pro,axc,2,DMCC8033964,pro_axc_run2_DMCC8033964,AX,2800,A,X,white,center,1,2,219,1,1,316,1,2,1,212539,217339,217655,212758,36722,18,175.817,176.036,180.617,180.933,28.413,260.012,491.625,231.641,463.226,694.839
2,pro,axc,2,DMCC8033964,pro_axc_run2_DMCC8033964,BY,4000,P,M,white,center,1,1,430,1,1,329,1,1,1,220939,225739,226068,221369,36722,19,184.217,184.647,189.017,189.346,28.413,260.012,491.625,231.641,463.226,694.839
2,pro,axc,2,DMCC8033964,pro_axc_run2_DMCC8033964,BY,1600,D,N,white,center,1,1,290,1,1,338,1,1,1,230538,235338,235676,230828,36722,20,193.816,194.106,198.616,198.954,28.413,260.012,491.625,231.641,463.226,694.839
2,pro,axc,2,DMCC8033964,pro_axc_run2_DMCC8033964,BX,2800,C,X,white,center,1,1,252,1,1,290,1,1,1,237738,242538,242828,237990,36722,21,201.016,201.268,205.816,206.106,28.413,260.012,491.625,231.641,463.226,694.839
2,pro,axc,2,DMCC8033964,pro_axc_run2_DMCC8033964,BX,2800,U,X,white,center,1,1,315,1,1,386,1,1,1,246137,250937,251323,246452,36722,22,209.415,209.73,214.215,214.601,28.413,260.012,491.625,231.641,463.226,694.839
2,pro,axc,2,DMCC8033964,pro_axc_run2_DMCC8033964,BY,1600,T,M,white,center,1,1,301,1,1,323,1,1,1,254537,259337,259660,254838,36722,23,217.815,218.116,222.615,222.938,28.413,260.012,491.625,231.641,463.226,694.839
2,pro,axc,2,DMCC8033964,pro_axc_run2_DMCC8033964,AX,1600,A,X,white,center,1,2,278,1,1,309,1,2,1,261736,266536,266845,262014,36722,24,225.014,225.292,229.814,230.123,28.413,260.012,491.625,231.641,463.226,694.839
2,pro,axc,2,DMCC8033964,pro_axc_run2_DMCC8033964,BY,1600,H,T,white,center,1,1,310,1,1,340,1,1,1,298934,303734,304074,299244,36722,25,262.212,262.522,267.012,267.352,28.413,260.012,491.625,231.641,463.226,694.839
2,pro,axc,2,DMCC8033964,pro_axc_run2_DMCC8033964,Ang,2800,A,9,white,center,1,,284,1,1,425,0,1,0,306134,310933,311358,306418,36722,26,269.412,269.696,274.211,274.636,28.413,260.012,491.625,231.641,463.226,694.839
2,pro,axc,2,DMCC8033964,pro_axc_run2_DMCC8033964,AX,4000,A,X,white,center,1,2,273,1,1,306,1,2,1,314533,319333,319639,314806,36722,27,277.811,278.084,282.611,282.917,28.413,260.012,491.625,231.641,463.226,694.839
2,pro,axc,2,DMCC8033964,pro_axc_run2_DMCC8033964,AX,4000,A,X,white,center,1,2,341,1,1,505,1,2,1,324133,328946,329451,324474,36722,28,287.411,287.752,292.224,292.729,28.413,260.012,491.625,231.641,463.226,694.839
2,pro,axc,2,DMCC8033964,pro_axc_run2_DMCC8033964,BY,4000,N,U,white,center,1,1,343,1,1,272,1,1,1,333745,338545,338817,334088,36722,29,297.023,297.366,301.823,302.095,28.413,260.012,491.625,231.641,463.226,694.839
2,pro,axc,2,DMCC8033964,pro_axc_run2_DMCC8033964,BX,1600,M,X,white,center,1,1,221,1,1,314,1,1,1,343345,348144,348458,343566,36722,30,306.623,306.844,311.422,311.736,28.413,260.012,491.625,231.641,463.226,694.839
2,pro,axc,2,DMCC8033964,pro_axc_run2_DMCC8033964,AX,1600,A,X,white,center,1,2,239,1,1,286,1,2,1,350544,355344,355630,350783,36722,31,313.822,314.061,318.622,318.908,28.413,260.012,491.625,231.641,463.226,694.839
2,pro,axc,2,DMCC8033964,pro_axc_run2_DMCC8033964,BX,2800,P,X,white,center,1,1,277,1,1,303,1,1,1,357744,362543,362846,358021,36722,32,321.022,321.299,325.821,326.124,28.413,260.012,491.625,231.641,463.226,694.839
2,pro,axc,2,DMCC8033964,pro_axc_run2_DMCC8033964,AX,4000,A,X,white,center,1,2,244,1,1,292,1,2,1,366143,370943,371235,366387,36722,33,329.421,329.665,334.221,334.513,28.413,260.012,491.625,231.641,463.226,694.839
2,pro,axc,2,DMCC8033964,pro_axc_run2_DMCC8033964,BY,2800,C,M,white,center,1,1,333,1,1,308,1,1,1,375743,380542,380850,376076,36722,34,339.021,339.354,343.82,344.128,28.413,260.012,491.625,231.641,463.226,694.839
2,pro,axc,2,DMCC8033964,pro_axc_run2_DMCC8033964,BY,1600,P,H,white,center,1,1,316,1,1,291,1,1,1,384142,388942,389233,384458,36722,35,347.42,347.736,352.22,352.511,28.413,260.012,491.625,231.641,463.226,694.839
2,pro,axc,2,DMCC8033964,pro_axc_run2_DMCC8033964,Bng,2800,T,9,white,center,1,,322,1,1,380,0,1,0,391342,396141,396521,391664,36722,36,354.62,354.942,359.419,359.799,28.413,260.012,491.625,231.641,463.226,694.839
2,pro,axc,2,DMCC8033964,pro_axc_run2_DMCC8033964,BY,1600,N,P,white,center,1,1,342,1,1,380,1,1,1,399741,404541,404921,400083,36722,37,363.019,363.361,367.819,368.199,28.413,260.012,491.625,231.641,463.226,694.839
2,pro,axc,2,DMCC8033964,pro_axc_run2_DMCC8033964,AX,4000,A,X,white,center,1,2,343,1,1,332,1,2,1,406941,411740,412072,407284,36722,38,370.219,370.562,375.018,375.35,28.413,260.012,491.625,231.641,463.226,694.839
2,pro,axc,2,DMCC8033964,pro_axc_run2_DMCC8033964,Bng,4000,C,6,white,center,1,,355,1,1,0,1,,1,416540,421340,0,416895,36722,39,379.818,380.173,384.618,-36.722,28.413,260.012,491.625,231.641,463.226,694.839
2,pro,axc,2,DMCC8033964,pro_axc_run2_DMCC8033964,BY,1600,D,T,white,center,1,1,347,1,1,356,1,1,1,426140,430939,431295,426487,36722,40,389.418,389.765,394.217,394.573,28.413,260.012,491.625,231.641,463.226,694.839
2,pro,axc,2,DMCC8033964,pro_axc_run2_DMCC8033964,BY,1600,F,C,white,center,1,1,317,1,1,427,1,1,1,433339,438139,438566,433656,36722,41,396.617,396.934,401.417,401.844,28.413,260.012,491.625,231.641,463.226,694.839
2,pro,axc,2,DMCC8033964,pro_axc_run2_DMCC8033964,AY,2800,A,T,white,center,1,1,325,1,1,462,1,1,1,440539,445338,445800,440864,36722,42,403.817,404.142,408.616,409.078,28.413,260.012,491.625,231.641,463.226,694.839
2,pro,axc,2,DMCC8033964,pro_axc_run2_DMCC8033964,AX,4000,A,X,white,center,1,2,249,1,1,278,1,2,1,448938,453738,454016,449187,36722,43,412.216,412.465,417.016,417.294,28.413,260.012,491.625,231.641,463.226,694.839
2,pro,axc,2,DMCC8033964,pro_axc_run2_DMCC8033964,BY,1600,C,D,white,center,1,1,372,1,1,337,1,1,1,458538,463337,463674,458910,36722,44,421.816,422.188,426.615,426.952,28.413,260.012,491.625,231.641,463.226,694.839
2,pro,axc,2,DMCC8033964,pro_axc_run2_DMCC8033964,Ang,2800,A,3,white,center,1,,517,1,1,0,1,,1,465737,470537,0,466254,36722,45,429.015,429.532,433.815,-36.722,28.413,260.012,491.625,231.641,463.226,694.839
2,pro,axc,2,DMCC8033964,pro_axc_run2_DMCC8033964,AX,4000,A,X,white,center,1,2,269,1,1,310,1,2,1,474137,478936,479246,474406,36722,46,437.415,437.684,442.214,442.524,28.413,260.012,491.625,231.641,463.226,694.839
2,pro,axc,2,DMCC8033964,pro_axc_run2_DMCC8033964,AX,2800,A,X,white,center,1,2,262,1,1,284,1,2,1,483736,488536,488820,483998,36722,47,447.014,447.276,451.814,452.098,28.413,260.012,491.625,231.641,463.226,694.839
2,pro,axc,2,DMCC8033964,pro_axc_run2_DMCC8033964,AY,2800,A,D,white,center,1,1,306,1,1,369,1,1,1,492136,496935,497304,492442,36722,48,455.414,455.72,460.213,460.582,28.413,260.012,491.625,231.641,463.226,694.839
2,pro,axc,2,DMCC8033964,pro_axc_run2_DMCC8033964,AY,1600,A,T,white,center,1,1,222,1,1,376,1,1,1,530533,535333,535709,530755,36722,49,493.811,494.033,498.611,498.987,28.413,260.012,491.625,231.641,463.226,694.839
2,pro,axc,2,DMCC8033964,pro_axc_run2_DMCC8033964,BX,4000,F,X,white,center,1,1,297,1,1,353,1,1,1,537733,542546,542899,538030,36722,50,501.011,501.308,505.824,506.177,28.413,260.012,491.625,231.641,463.226,694.839
2,pro,axc,2,DMCC8033964,pro_axc_run2_DMCC8033964,BX,4000,F,X,white,center,1,1,313,1,1,329,1,1,1,547345,552145,552474,547658,36722,51,510.623,510.936,515.423,515.752,28.413,260.012,491.625,231.641,463.226,694.839
2,pro,axc,2,DMCC8033964,pro_axc_run2_DMCC8033964,AX,2800,A,X,white,center,1,2,283,1,1,299,1,2,1,556945,561745,562044,557228,36722,52,520.223,520.506,525.023,525.322,28.413,260.012,491.625,231.641,463.226,694.839
2,pro,axc,2,DMCC8033964,pro_axc_run2_DMCC8033964,Ang,1600,A,1,white,center,1,,248,1,1,0,1,,1,565344,570144,0,565592,36722,53,528.622,528.87,533.422,-36.722,28.413,260.012,491.625,231.641,463.226,694.839
2,pro,axc,2,DMCC8033964,pro_axc_run2_DMCC8033964,BY,2800,M,P,white,center,1,1,239,1,1,438,1,1,1,572544,577344,577782,572783,36722,54,535.822,536.061,540.622,541.06,28.413,260.012,491.625,231.641,463.226,694.839
2,pro,axc,2,DMCC8033964,pro_axc_run2_DMCC8033964,AX,2800,A,X,white,center,1,2,268,1,1,270,1,2,1,580943,585743,586013,581211,36722,55,544.221,544.489,549.021,549.291,28.413,260.012,491.625,231.641,463.226,694.839
2,pro,axc,2,DMCC8033964,pro_axc_run2_DMCC8033964,Ang,1600,A,1,white,center,1,,252,1,1,0,1,,1,589343,594143,0,589595,36722,56,552.621,552.873,557.421,-36.722,28.413,260.012,491.625,231.641,463.226,694.839
2,pro,axc,2,DMCC8033964,pro_axc_run2_DMCC8033964,Bng,4000,P,4,white,center,1,,165,1,1,0,1,,1,596542,601342,0,596707,36722,57,559.82,559.985,564.62,-36.722,28.413,260.012,491.625,231.641,463.226,694.839
2,pro,axc,2,DMCC8033964,pro_axc_run2_DMCC8033964,Bng,4000,F,9,white,center,1,,287,1,1,318,0,1,0,606142,610942,611260,606429,36722,58,569.42,569.707,574.22,574.538,28.413,260.012,491.625,231.641,463.226,694.839
2,pro,axc,2,DMCC8033964,pro_axc_run2_DMCC8033964,BY,1600,T,N,white,center,1,1,355,1,1,355,1,1,1,615741,620541,620896,616096,36722,59,579.019,579.374,583.819,584.174,28.413,260.012,491.625,231.641,463.226,694.839
2,pro,axc,2,DMCC8033964,pro_axc_run2_DMCC8033964,AY,2800,A,D,white,center,1,1,267,1,1,540,1,1,1,622941,627740,628280,623208,36722,60,586.219,586.486,591.018,591.558,28.413,260.012,491.625,231.641,463.226,694.839
2,pro,axc,2,DMCC8033964,pro_axc_run2_DMCC8033964,AX,2800,A,X,white,center,1,2,282,1,1,274,1,2,1,631340,636140,636414,631622,36722,61,594.618,594.9,599.418,599.692,28.413,260.012,491.625,231.641,463.226,694.839
2,pro,axc,2,DMCC8033964,pro_axc_run2_DMCC8033964,BY,1600,P,H,white,center,1,1,306,1,1,307,1,1,1,639740,644539,644846,640046,36722,62,603.018,603.324,607.817,608.124,28.413,260.012,491.625,231.641,463.226,694.839
2,pro,axc,2,DMCC8033964,pro_axc_run2_DMCC8033964,BY,1600,H,T,white,center,1,1,249,1,1,336,1,1,1,646939,651739,652075,647188,36722,63,610.217,610.466,615.017,615.353,28.413,260.012,491.625,231.641,463.226,694.839
2,pro,axc,2,DMCC8033964,pro_axc_run2_DMCC8033964,BY,1600,D,N,white,center,1,1,323,1,1,345,1,1,1,654139,658939,659284,654462,36722,64,617.417,617.74,622.217,622.562,28.413,260.012,491.625,231.641,463.226,694.839
2,pro,axc,2,DMCC8033964,pro_axc_run2_DMCC8033964,AX,4000,A,X,white,center,1,2,357,1,1,384,1,2,1,661338,666138,666522,661695,36722,65,624.616,624.973,629.416,629.8,28.413,260.012,491.625,231.641,463.226,694.839
2,pro,axc,2,DMCC8033964,pro_axc_run2_DMCC8033964,BY,1600,M,F,white,center,1,1,336,1,1,337,1,1,1,670938,675738,676075,671274,36722,66,634.216,634.552,639.016,639.353,28.413,260.012,491.625,231.641,463.226,694.839
2,pro,axc,2,DMCC8033964,pro_axc_run2_DMCC8033964,AX,4000,A,X,white,center,1,2,247,1,1,324,1,2,1,678137,682937,683261,678384,36722,67,641.415,641.662,646.215,646.539,28.413,260.012,491.625,231.641,463.226,694.839
2,pro,axc,2,DMCC8033964,pro_axc_run2_DMCC8033964,AX,2800,A,X,white,center,1,2,291,1,1,324,1,2,1,687737,692536,692860,688028,36722,68,651.015,651.306,655.814,656.138,28.413,260.012,491.625,231.641,463.226,694.839
2,pro,axc,2,DMCC8033964,pro_axc_run2_DMCC8033964,AX,2800,A,X,white,center,1,2,244,1,1,276,1,2,1,696136,700936,701212,696380,36722,69,659.414,659.658,664.214,664.49,28.413,260.012,491.625,231.641,463.226,694.839
2,pro,axc,2,DMCC8033964,pro_axc_run2_DMCC8033964,BY,4000,C,M,white,center,1,1,309,1,1,330,1,1,1,704536,709335,709665,704845,36722,70,667.814,668.123,672.613,672.943,28.413,260.012,491.625,231.641,463.226,694.839
2,pro,axc,2,DMCC8033964,pro_axc_run2_DMCC8033964,BY,2800,D,T,white,center,1,1,362,1,1,336,1,1,1,714135,718935,719271,714497,36722,71,677.413,677.775,682.213,682.549,28.413,260.012,491.625,231.641,463.226,694.839
2,pro,axc,2,DMCC8033964,pro_axc_run2_DMCC8033964,AX,4000,A,X,white,center,1,2,302,1,1,294,1,2,1,722535,727334,727628,722837,36722,72,685.813,686.115,690.612,690.906,28.413,260.012,491.625,231.641,463.226,694.839
2,rea,axc,1,DMCC8033964,rea_axc_run1_DMCC8033964,Bng,2800,C,3,red,Below,1,,551,1,1,0,1,,1,123430,128230,0,123981,92815,1,30.615,31.166,35.415,-92.815,28.415,260.012,491.623,231.641,463.238,694.835
2,rea,axc,1,DMCC8033964,rea_axc_run1_DMCC8033964,BY,4000,H,T,white,Above,1,1,462,1,1,610,1,1,1,131829,136629,137239,132291,92815,2,39.014,39.476,43.814,44.424,28.415,260.012,491.623,231.641,463.238,694.835
2,rea,axc,1,DMCC8033964,rea_axc_run1_DMCC8033964,AY,4000,A,T,red,Below,1,1,406,1,1,538,1,1,1,141429,146228,146766,141835,92815,3,48.614,49.02,53.413,53.951,28.415,260.012,491.623,231.641,463.238,694.835
2,rea,axc,1,DMCC8033964,rea_axc_run1_DMCC8033964,AX,4000,A,X,white,Above,1,2,316,1,1,365,1,2,1,151028,155828,156193,151344,92815,4,58.213,58.529,63.013,63.378,28.415,260.012,491.623,231.641,463.238,694.835
2,rea,axc,1,DMCC8033964,rea_axc_run1_DMCC8033964,AX,2800,A,X,white,Above,1,2,247,1,1,270,1,2,1,160627,165427,165697,160874,92815,5,67.812,68.059,72.612,72.882,28.415,260.012,491.623,231.641,463.238,694.835
2,rea,axc,1,DMCC8033964,rea_axc_run1_DMCC8033964,AX,2800,A,X,white,Above,1,2,258,1,1,227,1,2,1,169027,173826,174053,169285,92815,6,76.212,76.47,81.011,81.238,28.415,260.012,491.623,231.641,463.238,694.835
2,rea,axc,1,DMCC8033964,rea_axc_run1_DMCC8033964,AX,1600,A,X,white,Above,1,2,251,1,1,215,1,2,1,177426,182226,182441,177677,92815,7,84.611,84.862,89.411,89.626,28.415,260.012,491.623,231.641,463.238,694.835
2,rea,axc,1,DMCC8033964,rea_axc_run1_DMCC8033964,AX,4000,A,X,white,Above,1,2,278,1,1,291,1,2,1,184626,189439,189730,184904,92815,8,91.811,92.089,96.624,96.915,28.415,260.012,491.623,231.641,463.238,694.835
2,rea,axc,1,DMCC8033964,rea_axc_run1_DMCC8033964,Ang,1600,A,8,red,Below,1,,241,1,1,0,1,,1,194238,199038,0,194479,92815,9,101.423,101.664,106.223,-92.815,28.415,260.012,491.623,231.641,463.238,694.835
2,rea,axc,1,DMCC8033964,rea_axc_run1_DMCC8033964,AX,2800,A,X,white,Above,1,2,279,1,1,134,1,2,1,201438,206237,206371,201717,92815,10,108.623,108.902,113.422,113.556,28.415,260.012,491.623,231.641,463.238,694.835
2,rea,axc,1,DMCC8033964,rea_axc_run1_DMCC8033964,BY,1600,C,M,white,Above,1,1,494,1,1,354,1,1,1,209837,214637,214991,210331,92815,11,117.022,117.516,121.822,122.176,28.415,260.012,491.623,231.641,463.238,694.835
2,rea,axc,1,DMCC8033964,rea_axc_run1_DMCC8033964,AX,1600,A,X,white,Above,1,2,230,1,1,219,1,2,1,217037,221836,222055,217267,92815,12,124.222,124.452,129.021,129.24,28.415,260.012,491.623,231.641,463.238,694.835
2,rea,axc,1,DMCC8033964,rea_axc_run1_DMCC8033964,BX,4000,M,X,red,Below,1,1,268,1,1,323,1,1,1,224236,229036,229359,224504,92815,13,131.421,131.689,136.221,136.544,28.415,260.012,491.623,231.641,463.238,694.835
2,rea,axc,1,DMCC8033964,rea_axc_run1_DMCC8033964,BY,2800,P,H,white,Above,1,1,393,1,1,524,1,1,1,233836,238635,239159,234229,92815,14,141.021,141.414,145.82,146.344,28.415,260.012,491.623,231.641,463.238,694.835
2,rea,axc,1,DMCC8033964,rea_axc_run1_DMCC8033964,BY,1600,D,N,white,Above,1,1,299,1,1,255,1,1,1,242235,247035,247290,242534,92815,15,149.42,149.719,154.22,154.475,28.415,260.012,491.623,231.641,463.238,694.835
2,rea,axc,1,DMCC8033964,rea_axc_run1_DMCC8033964,Bng,2800,M,8,red,Below,1,,302,1,1,233,0,1,0,249434,254234,254467,249736,92815,16,156.619,156.921,161.419,161.652,28.415,260.012,491.623,231.641,463.238,694.835
2,rea,axc,1,DMCC8033964,rea_axc_run1_DMCC8033964,BY,1600,N,P,white,Above,1,1,297,1,1,486,1,1,1,257834,262634,263120,258131,92815,17,165.019,165.316,169.819,170.305,28.415,260.012,491.623,231.641,463.238,694.835
2,rea,axc,1,DMCC8033964,rea_axc_run1_DMCC8033964,BX,2800,C,X,red,Below,1,1,353,1,1,334,1,1,1,265033,269833,270167,265386,92815,18,172.218,172.571,177.018,177.352,28.415,260.012,491.623,231.641,463.238,694.835
2,rea,axc,1,DMCC8033964,rea_axc_run1_DMCC8033964,BY,2800,P,M,white,Above,1,1,314,1,1,242,1,1,1,273433,278232,278474,273747,92815,19,180.618,180.932,185.417,185.659,28.415,260.012,491.623,231.641,463.238,694.835
2,rea,axc,1,DMCC8033964,rea_axc_run1_DMCC8033964,AX,1600,A,X,white,Above,1,2,276,1,1,229,1,2,1,281832,286632,286861,282108,92815,20,189.017,189.293,193.817,194.046,28.415,260.012,491.623,231.641,463.238,694.835
2,rea,axc,1,DMCC8033964,rea_axc_run1_DMCC8033964,BY,4000,F,C,white,Above,1,1,375,1,1,258,1,1,1,289032,293831,294089,289407,92815,21,196.217,196.592,201.016,201.274,28.415,260.012,491.623,231.641,463.238,694.835
2,rea,axc,1,DMCC8033964,rea_axc_run1_DMCC8033964,Ang,4000,A,4,red,Below,1,,346,1,1,0,1,,1,298631,303431,0,298977,92815,22,205.816,206.162,210.616,-92.815,28.415,260.012,491.623,231.641,463.238,694.835
2,rea,axc,1,DMCC8033964,rea_axc_run1_DMCC8033964,AY,4000,A,D,red,Below,1,1,353,1,1,385,0,2,0,308230,313030,313415,308583,92815,23,215.415,215.768,220.215,220.6,28.415,260.012,491.623,231.641,463.238,694.835
2,rea,axc,1,DMCC8033964,rea_axc_run1_DMCC8033964,BY,1600,M,F,white,Above,1,1,306,1,1,421,1,1,1,317830,322629,323050,318136,92815,24,225.015,225.321,229.814,230.235,28.415,260.012,491.623,231.641,463.238,694.835
2,rea,axc,1,DMCC8033964,rea_axc_run1_DMCC8033964,Bng,2800,C,7,red,Below,1,,358,1,1,362,0,1,0,355027,359827,360189,355385,92815,25,262.212,262.57,267.012,267.374,28.415,260.012,491.623,231.641,463.238,694.835
2,rea,axc,1,DMCC8033964,rea_axc_run1_DMCC8033964,AX,4000,A,X,white,Above,1,2,320,1,1,327,1,2,1,363426,368226,368553,363746,92815,26,270.611,270.931,275.411,275.738,28.415,260.012,491.623,231.641,463.238,694.835
2,rea,axc,1,DMCC8033964,rea_axc_run1_DMCC8033964,AX,4000,A,X,white,Above,1,2,321,1,1,352,1,2,1,373026,377839,378191,373347,92815,27,280.211,280.532,285.024,285.376,28.415,260.012,491.623,231.641,463.238,694.835
2,rea,axc,1,DMCC8033964,rea_axc_run1_DMCC8033964,BY,2800,M,P,white,Above,1,1,445,1,1,351,1,1,1,382638,387438,387789,383083,92815,28,289.823,290.268,294.623,294.974,28.415,260.012,491.623,231.641,463.238,694.835
2,rea,axc,1,DMCC8033964,rea_axc_run1_DMCC8033964,BY,1600,T,N,white,Above,1,1,321,1,1,330,1,1,1,391038,395837,396167,391359,92815,29,298.223,298.544,303.022,303.352,28.415,260.012,491.623,231.641,463.238,694.835
2,rea,axc,1,DMCC8033964,rea_axc_run1_DMCC8033964,BY,1600,N,U,white,Above,1,1,367,1,1,446,1,1,1,398237,403037,403483,398604,92815,30,305.422,305.789,310.222,310.668,28.415,260.012,491.623,231.641,463.238,694.835
2,rea,axc,1,DMCC8033964,rea_axc_run1_DMCC8033964,AX,2800,A,X,white,Above,1,2,527,1,1,268,1,2,1,405437,410236,410504,405964,92815,31,312.622,313.149,317.421,317.689,28.415,260.012,491.623,231.641,463.238,694.835
2,rea,axc,1,DMCC8033964,rea_axc_run1_DMCC8033964,AX,1600,A,X,white,Above,1,2,323,1,1,269,1,2,1,413836,418636,418905,414159,92815,32,321.021,321.344,325.821,326.09,28.415,260.012,491.623,231.641,463.238,694.835
2,rea,axc,1,DMCC8033964,rea_axc_run1_DMCC8033964,BY,4000,H,U,white,Above,1,1,282,1,1,329,1,1,1,421036,425835,426164,421318,92815,33,328.221,328.503,333.02,333.349,28.415,260.012,491.623,231.641,463.238,694.835
2,rea,axc,1,DMCC8033964,rea_axc_run1_DMCC8033964,AX,4000,A,X,white,Above,1,2,298,1,1,275,1,2,1,430635,435435,435710,430933,92815,34,337.82,338.118,342.62,342.895,28.415,260.012,491.623,231.641,463.238,694.835
2,rea,axc,1,DMCC8033964,rea_axc_run1_DMCC8033964,BY,1600,U,D,white,Above,1,1,518,1,1,304,1,1,1,440234,445034,445338,440752,92815,35,347.419,347.937,352.219,352.523,28.415,260.012,491.623,231.641,463.238,694.835
2,rea,axc,1,DMCC8033964,rea_axc_run1_DMCC8033964,BY,2800,C,D,white,Above,1,1,359,1,1,347,1,1,1,447434,452234,452581,447793,92815,36,354.619,354.978,359.419,359.766,28.415,260.012,491.623,231.641,463.238,694.835
2,rea,axc,1,DMCC8033964,rea_axc_run1_DMCC8033964,BX,2800,P,X,red,Below,1,1,365,1,1,487,1,1,1,455833,460633,461120,456198,92815,37,363.018,363.383,367.818,368.305,28.415,260.012,491.623,231.641,463.238,694.835
2,rea,axc,1,DMCC8033964,rea_axc_run1_DMCC8033964,Bng,1600,D,1,red,Below,1,,297,1,1,328,0,1,0,464233,469032,469360,464530,92815,38,371.418,371.715,376.217,376.545,28.415,260.012,491.623,231.641,463.238,694.835
2,rea,axc,1,DMCC8033964,rea_axc_run1_DMCC8033964,AX,2800,A,X,white,Above,1,2,297,1,1,306,1,2,1,471432,476232,476538,471729,92815,39,378.617,378.914,383.417,383.723,28.415,260.012,491.623,231.641,463.238,694.835
2,rea,axc,1,DMCC8033964,rea_axc_run1_DMCC8033964,BX,4000,U,X,red,Below,1,1,333,1,1,340,1,1,1,479832,484631,484971,480165,92815,40,387.017,387.35,391.816,392.156,28.415,260.012,491.623,231.641,463.238,694.835
2,rea,axc,1,DMCC8033964,rea_axc_run1_DMCC8033964,AY,4000,A,N,red,Below,1,1,329,1,1,426,1,1,1,489431,494231,494657,489760,92815,41,396.616,396.945,401.416,401.842,28.415,260.012,491.623,231.641,463.238,694.835
2,rea,axc,1,DMCC8033964,rea_axc_run1_DMCC8033964,Ang,1600,A,6,red,Below,1,,345,1,1,0,1,,1,499030,503830,0,499375,92815,42,406.215,406.56,411.015,-92.815,28.415,260.012,491.623,231.641,463.238,694.835
2,rea,axc,1,DMCC8033964,rea_axc_run1_DMCC8033964,AY,1600,A,H,red,Below,1,1,341,1,1,461,1,1,1,506230,511029,511490,506571,92815,43,413.415,413.756,418.214,418.675,28.415,260.012,491.623,231.641,463.238,694.835
2,rea,axc,1,DMCC8033964,rea_axc_run1_DMCC8033964,Ang,4000,A,2,red,Below,1,,321,1,1,0,1,,1,513429,518229,0,513750,92815,44,420.614,420.935,425.414,-92.815,28.415,260.012,491.623,231.641,463.238,694.835
2,rea,axc,1,DMCC8033964,rea_axc_run1_DMCC8033964,AX,2800,A,X,white,Above,1,2,371,1,1,345,1,2,1,523029,527828,528173,523400,92815,45,430.214,430.585,435.013,435.358,28.415,260.012,491.623,231.641,463.238,694.835
2,rea,axc,1,DMCC8033964,rea_axc_run1_DMCC8033964,BY,2800,U,P,white,Above,1,1,297,1,1,370,1,1,1,531428,536228,536598,531725,92815,46,438.613,438.91,443.413,443.783,28.415,260.012,491.623,231.641,463.238,694.835
2,rea,axc,1,DMCC8033964,rea_axc_run1_DMCC8033964,BY,1600,D,T,white,Above,1,1,327,1,1,397,1,1,1,539827,544627,545024,540154,92815,47,447.012,447.339,451.812,452.209,28.415,260.012,491.623,231.641,463.238,694.835
2,rea,axc,1,DMCC8033964,rea_axc_run1_DMCC8033964,AX,4000,A,X,white,Above,1,2,328,1,1,334,1,2,1,547027,551827,552161,547355,92815,48,454.212,454.54,459.012,459.346,28.415,260.012,491.623,231.641,463.238,694.835
2,rea,axc,1,DMCC8033964,rea_axc_run1_DMCC8033964,BX,1600,F,X,red,Below,1,1,392,1,1,454,1,1,1,586637,591437,591891,587029,92815,49,493.822,494.214,498.622,499.076,28.415,260.012,491.623,231.641,463.238,694.835
2,rea,axc,1,DMCC8033964,rea_axc_run1_DMCC8033964,Ang,4000,A,6,red,Below,1,,339,1,1,0,1,,1,593837,598637,0,594176,92815,50,501.022,501.361,505.822,-92.815,28.415,260.012,491.623,231.641,463.238,694.835
2,rea,axc,1,DMCC8033964,rea_axc_run1_DMCC8033964,AX,2800,A,X,white,Above,1,2,336,1,1,272,1,2,1,603436,608236,608508,603772,92815,51,510.621,510.957,515.421,515.693,28.415,260.012,491.623,231.641,463.238,694.835
2,rea,axc,1,DMCC8033964,rea_axc_run1_DMCC8033964,BX,1600,C,X,red,Below,1,1,379,1,1,380,1,1,1,611836,616635,617015,612215,92815,52,519.021,519.4,523.82,524.2,28.415,260.012,491.623,231.641,463.238,694.835
2,rea,axc,1,DMCC8033964,rea_axc_run1_DMCC8033964,AY,1600,A,H,red,Below,1,1,394,1,1,294,1,1,1,619035,623835,624129,619429,92815,53,526.22,526.614,531.02,531.314,28.415,260.012,491.623,231.641,463.238,694.835
2,rea,axc,1,DMCC8033964,rea_axc_run1_DMCC8033964,AX,4000,A,X,white,Above,1,2,267,1,1,248,1,2,1,626235,631034,631282,626502,92815,54,533.42,533.687,538.219,538.467,28.415,260.012,491.623,231.641,463.238,694.835
2,rea,axc,1,DMCC8033964,rea_axc_run1_DMCC8033964,AX,4000,A,X,white,Above,1,2,326,1,1,243,1,2,1,635834,640634,640877,636160,92815,55,543.019,543.345,547.819,548.062,28.415,260.012,491.623,231.641,463.238,694.835
2,rea,axc,1,DMCC8033964,rea_axc_run1_DMCC8033964,BY,2800,T,M,white,Above,1,1,276,1,1,322,1,1,1,645433,650233,650555,645709,92815,56,552.618,552.894,557.418,557.74,28.415,260.012,491.623,231.641,463.238,694.835
2,rea,axc,1,DMCC8033964,rea_axc_run1_DMCC8033964,Bng,2800,H,7,red,Below,1,,298,1,1,0,1,,1,653833,658632,0,654131,92815,57,561.018,561.316,565.817,-92.815,28.415,260.012,491.623,231.641,463.238,694.835
2,rea,axc,1,DMCC8033964,rea_axc_run1_DMCC8033964,AX,1600,A,X,white,Above,1,2,353,1,1,337,1,2,1,662232,667032,667369,662585,92815,58,569.417,569.77,574.217,574.554,28.415,260.012,491.623,231.641,463.238,694.835
2,rea,axc,1,DMCC8033964,rea_axc_run1_DMCC8033964,BY,4000,F,M,white,Above,1,1,463,1,1,333,1,1,1,669432,674231,674564,669895,92815,59,576.617,577.08,581.416,581.749,28.415,260.012,491.623,231.641,463.238,694.835
2,rea,axc,1,DMCC8033964,rea_axc_run1_DMCC8033964,BY,2800,M,F,white,Above,1,1,353,1,1,369,1,1,1,679031,683831,684200,679384,92815,60,586.216,586.569,591.016,591.385,28.415,260.012,491.623,231.641,463.238,694.835
2,rea,axc,1,DMCC8033964,rea_axc_run1_DMCC8033964,AX,4000,A,X,white,Above,1,2,358,1,1,346,1,2,1,687430,692230,692576,687788,92815,61,594.615,594.973,599.415,599.761,28.415,260.012,491.623,231.641,463.238,694.835
2,rea,axc,1,DMCC8033964,rea_axc_run1_DMCC8033964,BY,1600,H,T,white,Above,1,1,409,1,1,383,1,1,1,697030,701829,702212,697439,92815,62,604.215,604.624,609.014,609.397,28.415,260.012,491.623,231.641,463.238,694.835
2,rea,axc,1,DMCC8033964,rea_axc_run1_DMCC8033964,AX,1600,A,X,white,Above,1,2,338,1,1,365,1,2,1,704229,709029,709394,704567,92815,63,611.414,611.752,616.214,616.579,28.415,260.012,491.623,231.641,463.238,694.835
2,rea,axc,1,DMCC8033964,rea_axc_run1_DMCC8033964,AX,4000,A,X,white,Above,1,2,329,1,1,314,1,2,1,711429,716228,716542,711758,92815,64,618.614,618.943,623.413,623.727,28.415,260.012,491.623,231.641,463.238,694.835
2,rea,axc,1,DMCC8033964,rea_axc_run1_DMCC8033964,BY,1600,T,M,white,Above,1,1,359,1,1,343,1,1,1,721028,725828,726171,721387,92815,65,628.213,628.572,633.013,633.356,28.415,260.012,491.623,231.641,463.238,694.835
2,rea,axc,1,DMCC8033964,rea_axc_run1_DMCC8033964,BY,2800,N,P,white,Above,1,1,301,1,1,304,1,1,1,728227,733027,733331,728528,92815,66,635.412,635.713,640.212,640.516,28.415,260.012,491.623,231.641,463.238,694.835
2,rea,axc,1,DMCC8033964,rea_axc_run1_DMCC8033964,BY,2800,N,U,white,Above,1,1,364,1,1,537,1,1,1,736627,741427,741964,736991,92815,67,643.812,644.176,648.612,649.149,28.415,260.012,491.623,231.641,463.238,694.835
2,rea,axc,1,DMCC8033964,rea_axc_run1_DMCC8033964,AY,4000,A,T,red,Below,1,1,313,1,1,359,1,1,1,745026,749826,750185,745339,92815,68,652.211,652.524,657.011,657.37,28.415,260.012,491.623,231.641,463.238,694.835
2,rea,axc,1,DMCC8033964,rea_axc_run1_DMCC8033964,AX,2800,A,X,white,Above,1,2,277,1,1,262,1,2,1,754626,759439,759701,754903,92815,69,661.811,662.088,666.624,666.886,28.415,260.012,491.623,231.641,463.238,694.835
2,rea,axc,1,DMCC8033964,rea_axc_run1_DMCC8033964,Bng,4000,N,2,red,Below,1,,224,1,1,305,0,1,0,763038,767838,768143,763262,92815,70,670.223,670.447,675.023,675.328,28.415,260.012,491.623,231.641,463.238,694.835
2,rea,axc,1,DMCC8033964,rea_axc_run1_DMCC8033964,Ang,2800,A,2,red,Below,1,,270,1,1,0,1,,1,772638,777437,0,772908,92815,71,679.823,680.093,684.622,-92.815,28.415,260.012,491.623,231.641,463.238,694.835
2,rea,axc,1,DMCC8033964,rea_axc_run1_DMCC8033964,BY,1600,H,U,white,Above,1,1,323,1,1,355,1,1,1,781037,785837,786192,781360,92815,72,688.222,688.545,693.022,693.377,28.415,260.012,491.623,231.641,463.238,694.835
2,rea,axc,2,DMCC8033964,rea_axc_run2_DMCC8033964,BY,2800,C,N,white,Above,1,1,446,1,1,374,1,1,1,66620,71419,71793,67066,36005,1,30.615,31.061,35.414,35.788,28.415,260.025,491.622,231.64,463.237,694.834
2,rea,axc,2,DMCC8033964,rea_axc_run2_DMCC8033964,AX,4000,A,X,white,Above,1,2,309,1,1,281,1,2,1,75019,79819,80100,75328,36005,2,39.014,39.323,43.814,44.095,28.415,260.025,491.622,231.64,463.237,694.834
2,rea,axc,2,DMCC8033964,rea_axc_run2_DMCC8033964,BY,4000,M,U,white,Above,1,1,348,1,1,283,1,1,1,84632,89431,89714,84980,36005,3,48.627,48.975,53.426,53.709,28.415,260.025,491.622,231.64,463.237,694.834
2,rea,axc,2,DMCC8033964,rea_axc_run2_DMCC8033964,BX,1600,D,X,red,Below,1,1,289,1,1,356,1,1,1,94231,99031,99387,94520,36005,4,58.226,58.515,63.026,63.382,28.415,260.025,491.622,231.64,463.237,694.834
2,rea,axc,2,DMCC8033964,rea_axc_run2_DMCC8033964,Bng,2800,P,4,red,Below,1,,291,1,1,332,0,1,0,101430,106230,106562,101721,36005,5,65.425,65.716,70.225,70.557,28.415,260.025,491.622,231.64,463.237,694.834
2,rea,axc,2,DMCC8033964,rea_axc_run2_DMCC8033964,Ang,1600,A,5,red,Below,1,,250,1,1,0,1,,1,109830,114629,0,110080,36005,6,73.825,74.075,78.624,-36.005,28.415,260.025,491.622,231.64,463.237,694.834
2,rea,axc,2,DMCC8033964,rea_axc_run2_DMCC8033964,BY,4000,H,C,white,Above,1,1,329,1,1,452,1,1,1,117029,121829,122281,117358,36005,7,81.024,81.353,85.824,86.276,28.415,260.025,491.622,231.64,463.237,694.834
2,rea,axc,2,DMCC8033964,rea_axc_run2_DMCC8033964,AY,4000,A,U,red,Below,1,1,320,1,1,462,1,1,1,126629,131428,131890,126949,36005,8,90.624,90.944,95.423,95.885,28.415,260.025,491.622,231.64,463.237,694.834
2,rea,axc,2,DMCC8033964,rea_axc_run2_DMCC8033964,AX,2800,A,X,white,Above,1,2,348,1,1,262,1,2,1,136228,141028,141290,136576,36005,9,100.223,100.571,105.023,105.285,28.415,260.025,491.622,231.64,463.237,694.834
2,rea,axc,2,DMCC8033964,rea_axc_run2_DMCC8033964,Ang,2800,A,9,red,Below,1,,268,1,1,0,1,,1,144627,149427,0,144895,36005,10,108.622,108.89,113.422,-36.005,28.415,260.025,491.622,231.64,463.237,694.834
2,rea,axc,2,DMCC8033964,rea_axc_run2_DMCC8033964,AX,1600,A,X,white,Above,1,2,229,1,1,270,1,2,1,153027,157826,158096,153256,36005,11,117.022,117.251,121.821,122.091,28.415,260.025,491.622,231.64,463.237,694.834
2,rea,axc,2,DMCC8033964,rea_axc_run2_DMCC8033964,AX,1600,A,X,white,Above,1,2,340,1,1,254,1,2,1,160226,165026,165280,160566,36005,12,124.221,124.561,129.021,129.275,28.415,260.025,491.622,231.64,463.237,694.834
2,rea,axc,2,DMCC8033964,rea_axc_run2_DMCC8033964,AY,1600,A,P,red,Below,1,1,201,1,1,362,1,1,1,167426,172225,172587,167627,36005,13,131.421,131.622,136.22,136.582,28.415,260.025,491.622,231.64,463.237,694.834
2,rea,axc,2,DMCC8033964,rea_axc_run2_DMCC8033964,Bng,1600,C,8,red,Below,1,,351,1,1,0,1,,1,174625,179425,0,174976,36005,14,138.62,138.971,143.42,-36.005,28.415,260.025,491.622,231.64,463.237,694.834
2,rea,axc,2,DMCC8033964,rea_axc_run2_DMCC8033964,BY,4000,U,T,white,Above,1,1,430,1,1,336,1,1,1,181825,186624,186960,182255,36005,15,145.82,146.25,150.619,150.955,28.415,260.025,491.622,231.64,463.237,694.834
2,rea,axc,2,DMCC8033964,rea_axc_run2_DMCC8033964,BX,4000,H,X,red,Below,1,1,388,1,1,459,1,1,1,191424,196224,196683,191812,36005,16,155.419,155.807,160.219,160.678,28.415,260.025,491.622,231.64,463.237,694.834
2,rea,axc,2,DMCC8033964,rea_axc_run2_DMCC8033964,BY,2800,F,H,white,Above,1,1,309,1,1,326,1,1,1,201023,205823,206149,201332,36005,17,165.018,165.327,169.818,170.144,28.415,260.025,491.622,231.64,463.237,694.834
2,rea,axc,2,DMCC8033964,rea_axc_run2_DMCC8033964,BY,2800,T,H,white,Above,1,1,310,1,1,305,1,1,1,209423,214222,214527,209733,36005,18,173.418,173.728,178.217,178.522,28.415,260.025,491.622,231.64,463.237,694.834
2,rea,axc,2,DMCC8033964,rea_axc_run2_DMCC8033964,AX,4000,A,X,white,Above,1,2,260,1,1,278,1,2,1,217822,222622,222900,218082,36005,19,181.817,182.077,186.617,186.895,28.415,260.025,491.622,231.64,463.237,694.834
2,rea,axc,2,DMCC8033964,rea_axc_run2_DMCC8033964,BY,1600,U,F,white,Above,1,1,456,1,1,254,1,1,1,227422,232221,232475,227878,36005,20,191.417,191.873,196.216,196.47,28.415,260.025,491.622,231.64,463.237,694.834
2,rea,axc,2,DMCC8033964,rea_axc_run2_DMCC8033964,AX,2800,A,X,white,Above,1,2,317,1,1,313,1,2,1,234621,239421,239734,234938,36005,21,198.616,198.933,203.416,203.729,28.415,260.025,491.622,231.64,463.237,694.834
2,rea,axc,2,DMCC8033964,rea_axc_run2_DMCC8033964,AX,4000,A,X,white,Above,1,2,357,1,1,264,1,2,1,243020,247820,248084,243377,36005,22,207.015,207.372,211.815,212.079,28.415,260.025,491.622,231.64,463.237,694.834
2,rea,axc,2,DMCC8033964,rea_axc_run2_DMCC8033964,AX,1600,A,X,white,Above,1,2,311,1,1,334,1,2,1,252620,257419,257753,252931,36005,23,216.615,216.926,221.414,221.748,28.415,260.025,491.622,231.64,463.237,694.834
2,rea,axc,2,DMCC8033964,rea_axc_run2_DMCC8033964,BY,2800,N,H,white,Above,1,1,475,1,1,347,1,1,1,259819,264619,264966,260294,36005,24,223.814,224.289,228.614,228.961,28.415,260.025,491.622,231.64,463.237,694.834
2,rea,axc,2,DMCC8033964,rea_axc_run2_DMCC8033964,BX,4000,T,X,red,Below,1,1,447,1,1,479,1,1,1,298230,303030,303509,298677,36005,25,262.225,262.672,267.025,267.504,28.415,260.025,491.622,231.64,463.237,694.834
2,rea,axc,2,DMCC8033964,rea_axc_run2_DMCC8033964,BY,2800,T,P,white,Above,1,1,360,1,1,339,1,1,1,307829,312629,312968,308189,36005,26,271.824,272.184,276.624,276.963,28.415,260.025,491.622,231.64,463.237,694.834
2,rea,axc,2,DMCC8033964,rea_axc_run2_DMCC8033964,BX,1600,N,X,red,Below,1,1,309,1,1,386,1,1,1,316229,321028,321414,316538,36005,27,280.224,280.533,285.023,285.409,28.415,260.025,491.622,231.64,463.237,694.834
2,rea,axc,2,DMCC8033964,rea_axc_run2_DMCC8033964,AX,2800,A,X,white,Above,1,2,244,1,1,254,1,2,1,323428,328228,328482,323672,36005,28,287.423,287.667,292.223,292.477,28.415,260.025,491.622,231.64,463.237,694.834
2,rea,axc,2,DMCC8033964,rea_axc_run2_DMCC8033964,AX,1600,A,X,white,Above,1,2,273,1,1,239,1,2,1,331828,336627,336866,332101,36005,29,295.823,296.096,300.622,300.861,28.415,260.025,491.622,231.64,463.237,694.834
2,rea,axc,2,DMCC8033964,rea_axc_run2_DMCC8033964,BY,1600,C,F,white,Above,1,1,234,1,1,255,1,1,1,339027,343827,344082,339261,36005,30,303.022,303.256,307.822,308.077,28.415,260.025,491.622,231.64,463.237,694.834
2,rea,axc,2,DMCC8033964,rea_axc_run2_DMCC8033964,AY,4000,A,C,red,Below,1,1,344,1,1,381,1,1,1,346227,351026,351407,346571,36005,31,310.222,310.566,315.021,315.402,28.415,260.025,491.622,231.64,463.237,694.834
2,rea,axc,2,DMCC8033964,rea_axc_run2_DMCC8033964,AY,2800,A,F,red,Below,1,1,317,1,1,381,1,1,1,355826,360626,361007,356143,36005,32,319.821,320.138,324.621,325.002,28.415,260.025,491.622,231.64,463.237,694.834
2,rea,axc,2,DMCC8033964,rea_axc_run2_DMCC8033964,BY,4000,M,N,white,Above,1,1,428,1,1,335,1,1,1,364225,369025,369360,364653,36005,33,328.22,328.648,333.02,333.355,28.415,260.025,491.622,231.64,463.237,694.834
2,rea,axc,2,DMCC8033964,rea_axc_run2_DMCC8033964,BY,1600,P,T,white,Above,1,1,341,1,1,301,1,1,1,373825,378624,378925,374166,36005,34,337.82,338.161,342.619,342.92,28.415,260.025,491.622,231.64,463.237,694.834
2,rea,axc,2,DMCC8033964,rea_axc_run2_DMCC8033964,AX,4000,A,X,white,Above,1,2,255,1,1,281,1,2,1,381024,385824,386105,381279,36005,35,345.019,345.274,349.819,350.1,28.415,260.025,491.622,231.64,463.237,694.834
2,rea,axc,2,DMCC8033964,rea_axc_run2_DMCC8033964,AX,2800,A,X,white,Above,1,2,319,1,1,264,1,2,1,390623,395423,395687,390942,36005,36,354.618,354.937,359.418,359.682,28.415,260.025,491.622,231.64,463.237,694.834
2,rea,axc,2,DMCC8033964,rea_axc_run2_DMCC8033964,AX,4000,A,X,white,Above,1,2,298,1,1,273,1,2,1,399023,403822,404095,399321,36005,37,363.018,363.316,367.817,368.09,28.415,260.025,491.622,231.64,463.237,694.834
2,rea,axc,2,DMCC8033964,rea_axc_run2_DMCC8033964,BY,1600,D,U,white,Above,1,1,470,1,1,320,1,1,1,408622,413422,413742,409092,36005,38,372.617,373.087,377.417,377.737,28.415,260.025,491.622,231.64,463.237,694.834
2,rea,axc,2,DMCC8033964,rea_axc_run2_DMCC8033964,BY,2800,D,C,white,Above,1,1,297,1,1,269,1,1,1,415822,420621,420890,416119,36005,39,379.817,380.114,384.616,384.885,28.415,260.025,491.622,231.64,463.237,694.834
2,rea,axc,2,DMCC8033964,rea_axc_run2_DMCC8033964,AX,2800,A,X,white,Above,1,2,304,1,1,263,1,2,1,424221,429021,429284,424525,36005,40,388.216,388.52,393.016,393.279,28.415,260.025,491.622,231.64,463.237,694.834
2,rea,axc,2,DMCC8033964,rea_axc_run2_DMCC8033964,AX,1600,A,X,white,Above,1,2,313,1,1,279,1,2,1,432620,437420,437699,432933,36005,41,396.615,396.928,401.415,401.694,28.415,260.025,491.622,231.64,463.237,694.834
2,rea,axc,2,DMCC8033964,rea_axc_run2_DMCC8033964,Bng,4000,D,2,red,Below,1,,318,1,1,0,1,,1,439820,444620,0,440138,36005,42,403.815,404.133,408.615,-36.005,28.415,260.025,491.622,231.64,463.237,694.834
2,rea,axc,2,DMCC8033964,rea_axc_run2_DMCC8033964,Ang,4000,A,7,red,Below,1,,304,1,1,0,1,,1,449419,454219,0,449723,36005,43,413.414,413.718,418.214,-36.005,28.415,260.025,491.622,231.64,463.237,694.834
2,rea,axc,2,DMCC8033964,rea_axc_run2_DMCC8033964,BY,1600,H,F,white,Above,1,1,386,1,1,263,1,1,1,459019,463832,464095,459405,36005,44,423.014,423.4,427.827,428.09,28.415,260.025,491.622,231.64,463.237,694.834
2,rea,axc,2,DMCC8033964,rea_axc_run2_DMCC8033964,AX,2800,A,X,white,Above,1,2,337,1,1,290,1,2,1,466231,471031,471321,466568,36005,45,430.226,430.563,435.026,435.316,28.415,260.025,491.622,231.64,463.237,694.834
2,rea,axc,2,DMCC8033964,rea_axc_run2_DMCC8033964,Bng,1600,N,5,red,Below,1,,351,1,1,0,1,,1,474631,479431,0,474982,36005,46,438.626,438.977,443.426,-36.005,28.415,260.025,491.622,231.64,463.237,694.834
2,rea,axc,2,DMCC8033964,rea_axc_run2_DMCC8033964,BY,2800,N,D,white,Above,1,1,322,1,1,273,1,1,1,481830,486630,486903,482152,36005,47,445.825,446.147,450.625,450.898,28.415,260.025,491.622,231.64,463.237,694.834
2,rea,axc,2,DMCC8033964,rea_axc_run2_DMCC8033964,Ang,4000,A,3,red,Below,1,,311,1,1,0,1,,1,490230,495029,0,490541,36005,48,454.225,454.536,459.024,-36.005,28.415,260.025,491.622,231.64,463.237,694.834
2,rea,axc,2,DMCC8033964,rea_axc_run2_DMCC8033964,AX,4000,A,X,white,Above,1,2,453,1,1,302,1,2,1,529827,534627,534929,530280,36005,49,493.822,494.275,498.622,498.924,28.415,260.025,491.622,231.64,463.237,694.834
2,rea,axc,2,DMCC8033964,rea_axc_run2_DMCC8033964,BY,1600,F,D,white,Above,1,1,459,1,1,219,1,1,1,539426,544226,544445,539885,36005,50,503.421,503.88,508.221,508.44,28.415,260.025,491.622,231.64,463.237,694.834
2,rea,axc,2,DMCC8033964,rea_axc_run2_DMCC8033964,AX,1600,A,X,white,Above,1,2,315,1,1,285,1,2,1,546626,551425,551710,546941,36005,51,510.621,510.936,515.42,515.705,28.415,260.025,491.622,231.64,463.237,694.834
2,rea,axc,2,DMCC8033964,rea_axc_run2_DMCC8033964,AX,2800,A,X,white,Above,1,2,311,1,1,300,1,2,1,553825,558625,558925,554136,36005,52,517.82,518.131,522.62,522.92,28.415,260.025,491.622,231.64,463.237,694.834
2,rea,axc,2,DMCC8033964,rea_axc_run2_DMCC8033964,AX,4000,A,X,white,Above,1,2,314,1,1,300,1,2,1,562225,567024,567324,562539,36005,53,526.22,526.534,531.019,531.319,28.415,260.025,491.622,231.64,463.237,694.834
2,rea,axc,2,DMCC8033964,rea_axc_run2_DMCC8033964,AX,4000,A,X,white,Above,1,2,322,1,1,265,1,2,1,571824,576624,576889,572146,36005,54,535.819,536.141,540.619,540.884,28.415,260.025,491.622,231.64,463.237,694.834
2,rea,axc,2,DMCC8033964,rea_axc_run2_DMCC8033964,BY,2800,P,C,white,Above,1,1,419,1,1,260,1,1,1,581423,586223,586483,581842,36005,55,545.418,545.837,550.218,550.478,28.415,260.025,491.622,231.64,463.237,694.834
2,rea,axc,2,DMCC8033964,rea_axc_run2_DMCC8033964,AX,1600,A,X,white,Above,1,2,337,1,1,281,1,2,1,589823,594622,594903,590160,36005,56,553.818,554.155,558.617,558.898,28.415,260.025,491.622,231.64,463.237,694.834
2,rea,axc,2,DMCC8033964,rea_axc_run2_DMCC8033964,AX,2800,A,X,white,Above,1,2,316,1,1,310,1,2,1,597022,601822,602132,597338,36005,57,561.017,561.333,565.817,566.127,28.415,260.025,491.622,231.64,463.237,694.834
2,rea,axc,2,DMCC8033964,rea_axc_run2_DMCC8033964,Ang,2800,A,1,red,Below,1,,284,1,1,0,1,,1,605422,610221,0,605706,36005,58,569.417,569.701,574.216,-36.005,28.415,260.025,491.622,231.64,463.237,694.834
2,rea,axc,2,DMCC8033964,rea_axc_run2_DMCC8033964,BY,1600,P,T,white,Above,1,1,298,1,1,351,1,1,1,613821,618621,618972,614119,36005,59,577.816,578.114,582.616,582.967,28.415,260.025,491.622,231.64,463.237,694.834
2,rea,axc,2,DMCC8033964,rea_axc_run2_DMCC8033964,BY,4000,T,P,white,Above,1,1,258,1,1,378,1,1,1,621021,625820,626198,621279,36005,60,585.016,585.274,589.815,590.193,28.415,260.025,491.622,231.64,463.237,694.834
2,rea,axc,2,DMCC8033964,rea_axc_run2_DMCC8033964,BY,2800,M,N,white,Above,1,1,377,1,1,267,1,1,1,630620,635420,635687,630997,36005,61,594.615,594.992,599.415,599.682,28.415,260.025,491.622,231.64,463.237,694.834
2,rea,axc,2,DMCC8033964,rea_axc_run2_DMCC8033964,AY,1600,A,M,red,Below,1,1,258,1,1,364,1,1,1,639019,643819,644183,639277,36005,62,603.014,603.272,607.814,608.178,28.415,260.025,491.622,231.64,463.237,694.834
2,rea,axc,2,DMCC8033964,rea_axc_run2_DMCC8033964,Ang,4000,A,3,red,Below,1,,214,1,1,0,1,,1,646219,651032,0,646433,36005,63,610.214,610.428,615.027,-36.005,28.415,260.025,491.622,231.64,463.237,694.834
2,rea,axc,2,DMCC8033964,rea_axc_run2_DMCC8033964,BY,1600,H,C,white,Above,1,1,337,1,1,235,1,1,1,655831,660631,660866,656168,36005,64,619.826,620.163,624.626,624.861,28.415,260.025,491.622,231.64,463.237,694.834
2,rea,axc,2,DMCC8033964,rea_axc_run2_DMCC8033964,BX,4000,H,X,red,Below,1,1,234,1,1,453,1,1,1,663031,667831,668284,663265,36005,65,627.026,627.26,631.826,632.279,28.415,260.025,491.622,231.64,463.237,694.834
2,rea,axc,2,DMCC8033964,rea_axc_run2_DMCC8033964,Bng,1600,C,6,red,Below,1,,322,1,1,0,1,,1,672630,677430,0,672952,36005,66,636.625,636.947,641.425,-36.005,28.415,260.025,491.622,231.64,463.237,694.834
2,rea,axc,2,DMCC8033964,rea_axc_run2_DMCC8033964,AY,2800,A,M,red,Below,1,1,258,1,1,335,1,1,1,679830,684629,684964,680088,36005,67,643.825,644.083,648.624,648.959,28.415,260.025,491.622,231.64,463.237,694.834
2,rea,axc,2,DMCC8033964,rea_axc_run2_DMCC8033964,AX,1600,A,X,white,Above,1,2,332,1,1,259,1,2,1,688229,693029,693288,688561,36005,68,652.224,652.556,657.024,657.283,28.415,260.025,491.622,231.64,463.237,694.834
2,rea,axc,2,DMCC8033964,rea_axc_run2_DMCC8033964,BY,2800,T,H,white,Above,1,1,240,1,1,267,1,1,1,695429,700228,700495,695669,36005,69,659.424,659.664,664.223,664.49,28.415,260.025,491.622,231.64,463.237,694.834
2,rea,axc,2,DMCC8033964,rea_axc_run2_DMCC8033964,BY,4000,C,F,white,Above,1,1,319,1,1,234,1,1,1,703828,708628,708862,704147,36005,70,667.823,668.142,672.623,672.857,28.415,260.025,491.622,231.64,463.237,694.834
2,rea,axc,2,DMCC8033964,rea_axc_run2_DMCC8033964,BX,2800,D,X,red,Below,1,1,265,1,1,332,1,1,1,713427,718227,718559,713692,36005,71,677.422,677.687,682.222,682.554,28.415,260.025,491.622,231.64,463.237,694.834
2,rea,axc,2,DMCC8033964,rea_axc_run2_DMCC8033964,Bng,4000,N,3,red,Below,1,,271,1,1,0,1,,1,721827,726626,0,722098,36005,72,685.822,686.093,690.621,-36.005,28.415,260.025,491.622,231.64,463.237,694.834
3,bas,axc,1,DMCC8033964,bas_axc_run1_DMCC8033964,Ang,4000,A,7,white,center,1,,351,1,1,0,1,,1,173073,177873,0,173424,142449,1,30.624,30.975,35.424,-142.449,28.424,260.038,491.638,231.624,463.238,694.838
3,bas,axc,1,DMCC8033964,bas_axc_run1_DMCC8033964,BY,2800,M,F,white,center,1,1,435,1,1,431,1,1,1,182673,187487,187918,183108,142449,2,40.224,40.659,45.038,45.469,28.424,260.038,491.638,231.624,463.238,694.838
3,bas,axc,1,DMCC8033964,bas_axc_run1_DMCC8033964,BY,1600,D,T,white,center,1,1,319,1,1,397,1,1,1,191087,195887,196284,191406,142449,3,48.638,48.957,53.438,53.835,28.424,260.038,491.638,231.624,463.238,694.838
3,bas,axc,1,DMCC8033964,bas_axc_run1_DMCC8033964,BX,4000,P,X,white,center,1,1,570,1,1,355,1,1,1,198287,203087,203442,198857,142449,4,55.838,56.408,60.638,60.993,28.424,260.038,491.638,231.624,463.238,694.838
3,bas,axc,1,DMCC8033964,bas_axc_run1_DMCC8033964,AY,1600,A,N,white,center,1,1,503,1,1,598,1,1,1,207887,212673,213271,208390,142449,5,65.438,65.941,70.224,70.822,28.424,260.038,491.638,231.624,463.238,694.838
3,bas,axc,1,DMCC8033964,bas_axc_run1_DMCC8033964,BY,4000,F,C,white,center,1,1,613,1,1,550,1,1,1,215073,219873,220423,215686,142449,6,72.624,73.237,77.424,77.974,28.424,260.038,491.638,231.624,463.238,694.838
3,bas,axc,1,DMCC8033964,bas_axc_run1_DMCC8033964,Bng,2800,M,9,white,center,1,,296,1,1,0,1,,1,224687,229487,0,224983,142449,7,82.238,82.534,87.038,-142.449,28.424,260.038,491.638,231.624,463.238,694.838
3,bas,axc,1,DMCC8033964,bas_axc_run1_DMCC8033964,BX,1600,C,X,white,center,1,1,264,1,1,404,1,1,1,233087,237887,238291,233351,142449,8,90.638,90.902,95.438,95.842,28.424,260.038,491.638,231.624,463.238,694.838
3,bas,axc,1,DMCC8033964,bas_axc_run1_DMCC8033964,AX,4000,A,X,white,center,1,2,406,1,1,341,1,2,1,240287,245087,245428,240693,142449,9,97.838,98.244,102.638,102.979,28.424,260.038,491.638,231.624,463.238,694.838
3,bas,axc,1,DMCC8033964,bas_axc_run1_DMCC8033964,Bng,1600,H,5,white,center,1,,335,1,1,0,1,,1,249887,254673,0,250222,142449,10,107.438,107.773,112.224,-142.449,28.424,260.038,491.638,231.624,463.238,694.838
3,bas,axc,1,DMCC8033964,bas_axc_run1_DMCC8033964,AX,2800,A,X,white,center,1,2,359,1,1,381,1,2,1,257073,261873,262254,257432,142449,11,114.624,114.983,119.424,119.805,28.424,260.038,491.638,231.624,463.238,694.838
3,bas,axc,1,DMCC8033964,bas_axc_run1_DMCC8033964,AX,2800,A,X,white,center,1,2,389,1,1,345,1,2,1,265487,270287,270632,265876,142449,12,123.038,123.427,127.838,128.183,28.424,260.038,491.638,231.624,463.238,694.838
3,bas,axc,1,DMCC8033964,bas_axc_run1_DMCC8033964,BY,1600,U,D,white,center,1,1,454,1,1,362,1,1,1,273887,278687,279049,274341,142449,13,131.438,131.892,136.238,136.6,28.424,260.038,491.638,231.624,463.238,694.838
3,bas,axc,1,DMCC8033964,bas_axc_run1_DMCC8033964,AX,2800,A,X,white,center,1,2,391,1,1,302,1,2,1,281087,285887,286189,281478,142449,14,138.638,139.029,143.438,143.74,28.424,260.038,491.638,231.624,463.238,694.838
3,bas,axc,1,DMCC8033964,bas_axc_run1_DMCC8033964,BY,4000,H,T,white,center,1,1,339,1,1,456,1,1,1,289487,294273,294729,289826,142449,15,147.038,147.377,151.824,152.28,28.424,260.038,491.638,231.624,463.238,694.838
3,bas,axc,1,DMCC8033964,bas_axc_run1_DMCC8033964,BY,4000,P,H,white,center,1,1,374,1,1,364,1,1,1,299073,303873,304237,299447,142449,16,156.624,156.998,161.424,161.788,28.424,260.038,491.638,231.624,463.238,694.838
3,bas,axc,1,DMCC8033964,bas_axc_run1_DMCC8033964,AX,2800,A,X,white,center,1,2,369,1,1,369,1,2,1,308687,313487,313856,309056,142449,17,166.238,166.607,171.038,171.407,28.424,260.038,491.638,231.624,463.238,694.838
3,bas,axc,1,DMCC8033964,bas_axc_run1_DMCC8033964,AY,1600,A,D,white,center,1,1,357,1,1,434,1,1,1,317087,321887,322321,317444,142449,18,174.638,174.995,179.438,179.872,28.424,260.038,491.638,231.624,463.238,694.838
3,bas,axc,1,DMCC8033964,bas_axc_run1_DMCC8033964,AX,1600,A,X,white,center,1,2,276,1,1,344,1,2,1,324287,329087,329431,324563,142449,19,181.838,182.114,186.638,186.982,28.424,260.038,491.638,231.624,463.238,694.838
3,bas,axc,1,DMCC8033964,bas_axc_run1_DMCC8033964,BY,2800,N,U,white,center,1,1,378,1,1,365,1,1,1,331473,336273,336638,331851,142449,20,189.024,189.402,193.824,194.189,28.424,260.038,491.638,231.624,463.238,694.838
3,bas,axc,1,DMCC8033964,bas_axc_run1_DMCC8033964,BY,4000,U,P,white,center,1,1,319,1,1,358,1,1,1,339873,344673,345031,340192,142449,21,197.424,197.743,202.224,202.582,28.424,260.038,491.638,231.624,463.238,694.838
3,bas,axc,1,DMCC8033964,bas_axc_run1_DMCC8033964,AX,4000,A,X,white,center,1,2,395,1,1,498,1,2,1,349487,354287,354785,349882,142449,22,207.038,207.433,211.838,212.336,28.424,260.038,491.638,231.624,463.238,694.838
3,bas,axc,1,DMCC8033964,bas_axc_run1_DMCC8033964,Ang,2800,A,1,white,center,1,,343,1,1,0,1,,1,359087,363887,0,359430,142449,23,216.638,216.981,221.438,-142.449,28.424,260.038,491.638,231.624,463.238,694.838
3,bas,axc,1,DMCC8033964,bas_axc_run1_DMCC8033964,AX,1600,A,X,white,center,1,2,377,1,1,313,1,2,1,367487,372273,372586,367864,142449,24,225.038,225.415,229.824,230.137,28.424,260.038,491.638,231.624,463.238,694.838
3,bas,axc,1,DMCC8033964,bas_axc_run1_DMCC8033964,Bng,1600,M,4,white,center,1,,397,1,1,0,1,,1,404687,409487,0,405084,142449,25,262.238,262.635,267.038,-142.449,28.424,260.038,491.638,231.624,463.238,694.838
3,bas,axc,1,DMCC8033964,bas_axc_run1_DMCC8033964,BY,4000,D,N,white,center,1,1,330,1,1,324,1,1,1,411887,416673,416997,412217,142449,26,269.438,269.768,274.224,274.548,28.424,260.038,491.638,231.624,463.238,694.838
3,bas,axc,1,DMCC8033964,bas_axc_run1_DMCC8033964,AX,4000,A,X,white,center,1,2,326,1,1,328,1,2,1,421473,426273,426601,421799,142449,27,279.024,279.35,283.824,284.152,28.424,260.038,491.638,231.624,463.238,694.838
3,bas,axc,1,DMCC8033964,bas_axc_run1_DMCC8033964,BY,4000,C,M,white,center,1,1,258,1,1,278,1,1,1,431087,435887,436165,431345,142449,28,288.638,288.896,293.438,293.716,28.424,260.038,491.638,231.624,463.238,694.838
3,bas,axc,1,DMCC8033964,bas_axc_run1_DMCC8033964,AX,1600,A,X,white,center,1,2,359,1,1,266,1,2,1,440687,445487,445753,441046,142449,29,298.238,298.597,303.038,303.304,28.424,260.038,491.638,231.624,463.238,694.838
3,bas,axc,1,DMCC8033964,bas_axc_run1_DMCC8033964,BY,2800,M,P,white,center,1,1,367,1,1,445,1,1,1,447887,452687,453132,448254,142449,30,305.438,305.805,310.238,310.683,28.424,260.038,491.638,231.624,463.238,694.838
3,bas,axc,1,DMCC8033964,bas_axc_run1_DMCC8033964,AY,2800,A,T,white,center,1,1,341,1,1,445,1,1,1,456273,461073,461518,456614,142449,31,313.824,314.165,318.624,319.069,28.424,260.038,491.638,231.624,463.238,694.838
3,bas,axc,1,DMCC8033964,bas_axc_run1_DMCC8033964,AX,4000,A,X,white,center,1,2,304,1,1,287,1,2,1,464673,469487,469774,464977,142449,32,322.224,322.528,327.038,327.325,28.424,260.038,491.638,231.624,463.238,694.838
3,bas,axc,1,DMCC8033964,bas_axc_run1_DMCC8033964,BY,2800,T,N,white,center,1,1,393,1,1,322,1,1,1,474287,479087,479409,474680,142449,33,331.838,332.231,336.638,336.96,28.424,260.038,491.638,231.624,463.238,694.838
3,bas,axc,1,DMCC8033964,bas_axc_run1_DMCC8033964,Bng,1600,P,9,white,center,1,,354,1,1,0,1,,1,482687,487487,0,483041,142449,34,340.238,340.592,345.038,-142.449,28.424,260.038,491.638,231.624,463.238,694.838
3,bas,axc,1,DMCC8033964,bas_axc_run1_DMCC8033964,BY,1600,P,M,white,center,1,1,359,1,1,317,1,1,1,489887,494673,494990,490246,142449,35,347.438,347.797,352.224,352.541,28.424,260.038,491.638,231.624,463.238,694.838
3,bas,axc,1,DMCC8033964,bas_axc_run1_DMCC8033964,AX,2800,A,X,white,center,1,2,454,1,1,311,1,2,1,497073,501873,502184,497527,142449,36,354.624,355.078,359.424,359.735,28.424,260.038,491.638,231.624,463.238,694.838
3,bas,axc,1,DMCC8033964,bas_axc_run1_DMCC8033964,BY,1600,F,M,white,center,1,1,351,1,1,350,1,1,1,505473,510287,510637,505824,142449,37,363.024,363.375,367.838,368.188,28.424,260.038,491.638,231.624,463.238,694.838
3,bas,axc,1,DMCC8033964,bas_axc_run1_DMCC8033964,AY,1600,A,H,white,center,1,1,340,1,1,369,1,1,1,512687,517487,517856,513027,142449,38,370.238,370.578,375.038,375.407,28.424,260.038,491.638,231.624,463.238,694.838
3,bas,axc,1,DMCC8033964,bas_axc_run1_DMCC8033964,AX,2800,A,X,white,center,1,2,360,1,1,347,1,2,1,519887,524687,525034,520247,142449,39,377.438,377.798,382.238,382.585,28.424,260.038,491.638,231.624,463.238,694.838
3,bas,axc,1,DMCC8033964,bas_axc_run1_DMCC8033964,BY,4000,H,U,white,center,1,1,388,1,1,314,1,1,1,528287,533087,533401,528675,142449,40,385.838,386.226,390.638,390.952,28.424,260.038,491.638,231.624,463.238,694.838
3,bas,axc,1,DMCC8033964,bas_axc_run1_DMCC8033964,Ang,4000,A,3,white,center,1,,346,1,1,0,1,,1,537873,542673,0,538219,142449,41,395.424,395.77,400.224,-142.449,28.424,260.038,491.638,231.624,463.238,694.838
3,bas,axc,1,DMCC8033964,bas_axc_run1_DMCC8033964,BX,4000,M,X,white,center,1,1,366,1,1,445,1,1,1,547473,552287,552732,547839,142449,42,405.024,405.39,409.838,410.283,28.424,260.038,491.638,231.624,463.238,694.838
3,bas,axc,1,DMCC8033964,bas_axc_run1_DMCC8033964,AX,2800,A,X,white,center,1,2,336,1,1,350,1,2,1,557087,561887,562237,557423,142449,43,414.638,414.974,419.438,419.788,28.424,260.038,491.638,231.624,463.238,694.838
