wave,session,task,run,subj,name,trialtype,iti,cue,probe,target.color,location,cue.cresp,cresp,cue.rt,cue.acc,cue.resp,rt,acc,resp,trialacc,time.cue.onset.abs,time.target.onset.abs,time.target.rt.abs,time.cue.rt.abs,time.scan.start,trial.num,time.cue.onset,time.cue.rt,time.target.onset,time.target.rt,time.block1.on,time.block2.on,time.block3.on,time.block1.off,time.block2.off,time.block3.off
1,bas,axc,1,130518,bas_axc_run1_130518,AX,4000,A,X,white,center,1,2,664,1,1,589,0,1,0,155069,159868,160457,155733,124462,1,30.607,31.271,35.406,35.995,28.424,260.02,491.616,231.624,463.221,694.817
1,bas,axc,1,130518,bas_axc_run1_130518,BY,2800,D,N,white,center,1,1,712,1,1,439,0,2,0,164684,169483,169922,165396,124462,2,40.222,40.934,45.021,45.46,28.424,260.02,491.616,231.624,463.221,694.817
1,bas,axc,1,130518,bas_axc_run1_130518,Ang,1600,A,3,white,center,1,,385,1,1,0,1,,1,173082,177882,0,173467,124462,3,48.62,49.005,53.42,-124.462,28.424,260.02,491.616,231.624,463.221,694.817
1,bas,axc,1,130518,bas_axc_run1_130518,AX,4000,A,X,white,center,1,2,541,1,1,401,1,2,1,180281,185081,185482,180822,124462,4,55.819,56.36,60.619,61.02,28.424,260.02,491.616,231.624,463.221,694.817
1,bas,axc,1,130518,bas_axc_run1_130518,BY,1600,H,T,white,center,1,1,439,1,1,0,0,,0,189880,194679,0,190319,124462,5,65.418,65.857,70.217,-124.462,28.424,260.02,491.616,231.624,463.221,694.817
1,bas,axc,1,130518,bas_axc_run1_130518,AY,2800,A,N,white,center,1,1,708,1,1,1480,1,1,1,197079,201878,203358,197787,124462,6,72.617,73.325,77.416,78.896,28.424,260.02,491.616,231.624,463.221,694.817
1,bas,axc,1,130518,bas_axc_run1_130518,BY,2800,F,C,white,center,1,1,525,1,1,447,1,1,1,205477,210276,210723,206002,124462,7,81.015,81.54,85.814,86.261,28.424,260.02,491.616,231.624,463.221,694.817
1,bas,axc,1,130518,bas_axc_run1_130518,AX,4000,A,X,white,center,1,2,354,1,1,339,1,2,1,213876,218675,219014,214230,124462,8,89.414,89.768,94.213,94.552,28.424,260.02,491.616,231.624,463.221,694.817
1,bas,axc,1,130518,bas_axc_run1_130518,AX,4000,A,X,white,center,1,2,410,1,1,301,1,2,1,223474,228274,228575,223884,124462,9,99.012,99.422,103.812,104.113,28.424,260.02,491.616,231.624,463.221,694.817
1,bas,axc,1,130518,bas_axc_run1_130518,AX,1600,A,X,white,center,1,2,390,1,1,306,1,2,1,233073,237872,238178,233463,124462,10,108.611,109.001,113.41,113.716,28.424,260.02,491.616,231.624,463.221,694.817
1,bas,axc,1,130518,bas_axc_run1_130518,AX,2800,A,X,white,center,1,2,348,1,1,387,1,2,1,240272,245071,245458,240620,124462,11,115.81,116.158,120.609,120.996,28.424,260.02,491.616,231.624,463.221,694.817
1,bas,axc,1,130518,bas_axc_run1_130518,AX,1600,A,X,white,center,1,2,319,1,1,327,1,2,1,248670,253470,253797,248989,124462,12,124.208,124.527,129.008,129.335,28.424,260.02,491.616,231.624,463.221,694.817
1,bas,axc,1,130518,bas_axc_run1_130518,BY,4000,U,P,white,center,1,1,407,1,1,381,1,1,1,255869,260668,261049,256276,124462,13,131.407,131.814,136.206,136.587,28.424,260.02,491.616,231.624,463.221,694.817
1,bas,axc,1,130518,bas_axc_run1_130518,AY,4000,A,H,white,center,1,1,320,1,1,750,1,1,1,265468,270284,271034,265788,124462,14,141.006,141.326,145.822,146.572,28.424,260.02,491.616,231.624,463.221,694.817
1,bas,axc,1,130518,bas_axc_run1_130518,BX,2800,U,X,white,center,1,1,329,1,1,1415,0,2,0,275083,279882,281297,275412,124462,15,150.621,150.95,155.42,156.835,28.424,260.02,491.616,231.624,463.221,694.817
1,bas,axc,1,130518,bas_axc_run1_130518,Ang,2800,A,5,white,center,1,,430,1,1,0,1,,1,283481,288281,0,283911,124462,16,159.019,159.449,163.819,-124.462,28.424,260.02,491.616,231.624,463.221,694.817
1,bas,axc,1,130518,bas_axc_run1_130518,BY,4000,D,T,white,center,1,1,859,1,1,690,1,1,1,291880,296679,297369,292739,124462,17,167.418,168.277,172.217,172.907,28.424,260.02,491.616,231.624,463.221,694.817
1,bas,axc,1,130518,bas_axc_run1_130518,BY,1600,M,P,white,center,1,1,450,1,1,405,1,1,1,301479,306278,306683,301929,124462,18,177.017,177.467,181.816,182.221,28.424,260.02,491.616,231.624,463.221,694.817
1,bas,axc,1,130518,bas_axc_run1_130518,Bng,1600,F,5,white,center,1,,471,1,1,0,1,,1,308677,313477,0,309148,124462,19,184.215,184.686,189.015,-124.462,28.424,260.02,491.616,231.624,463.221,694.817
1,bas,axc,1,130518,bas_axc_run1_130518,BY,1600,T,M,white,center,1,1,340,1,1,449,1,1,1,315876,320675,321124,316216,124462,20,191.414,191.754,196.213,196.662,28.424,260.02,491.616,231.624,463.221,694.817
1,bas,axc,1,130518,bas_axc_run1_130518,BY,2800,C,D,white,center,1,1,451,1,1,391,1,1,1,323075,327874,328265,323526,124462,21,198.613,199.064,203.412,203.803,28.424,260.02,491.616,231.624,463.221,694.817
1,bas,axc,1,130518,bas_axc_run1_130518,AX,1600,A,X,white,center,1,2,470,1,1,305,1,2,1,331474,336273,336578,331944,124462,22,207.012,207.482,211.811,212.116,28.424,260.02,491.616,231.624,463.221,694.817
1,bas,axc,1,130518,bas_axc_run1_130518,BX,2800,P,X,white,center,1,1,553,1,1,431,0,2,0,338673,343472,343903,339226,124462,23,214.211,214.764,219.01,219.441,28.424,260.02,491.616,231.624,463.221,694.817
1,bas,axc,1,130518,bas_axc_run1_130518,Bng,4000,M,9,white,center,1,,437,1,1,0,1,,1,347071,351870,0,347508,124462,24,222.609,223.046,227.408,-124.462,28.424,260.02,491.616,231.624,463.221,694.817
1,bas,axc,1,130518,bas_axc_run1_130518,BY,2800,U,D,white,center,1,1,0,0,,884,1,1,0,386682,391481,392365,0,124462,25,262.22,-124.462,267.019,267.903,28.424,260.02,491.616,231.624,463.221,694.817
1,bas,axc,1,130518,bas_axc_run1_130518,BX,1600,M,X,white,center,1,1,558,1,1,1024,1,1,1,395080,399879,400903,395638,124462,26,270.618,271.176,275.417,276.441,28.424,260.02,491.616,231.624,463.221,694.817
1,bas,axc,1,130518,bas_axc_run1_130518,BY,2800,M,F,white,center,1,1,507,1,1,381,1,1,1,402279,407078,407459,402786,124462,27,277.817,278.324,282.616,282.997,28.424,260.02,491.616,231.624,463.221,694.817
1,bas,axc,1,130518,bas_axc_run1_130518,AX,1600,A,X,white,center,1,2,395,1,1,313,1,2,1,410678,415477,415790,411073,124462,28,286.216,286.611,291.015,291.328,28.424,260.02,491.616,231.624,463.221,694.817
1,bas,axc,1,130518,bas_axc_run1_130518,AX,2800,A,X,white,center,1,2,484,1,1,331,1,2,1,417877,422676,423007,418361,124462,29,293.415,293.899,298.214,298.545,28.424,260.02,491.616,231.624,463.221,694.817
1,bas,axc,1,130518,bas_axc_run1_130518,Bng,2800,C,6,white,center,1,,535,1,1,0,1,,1,426275,431074,0,426810,124462,30,301.813,302.348,306.612,-124.462,28.424,260.02,491.616,231.624,463.221,694.817
1,bas,axc,1,130518,bas_axc_run1_130518,BY,4000,T,N,white,center,1,1,357,1,1,405,1,1,1,434674,439473,439878,435031,124462,31,310.212,310.569,315.011,315.416,28.424,260.02,491.616,231.624,463.221,694.817
1,bas,axc,1,130518,bas_axc_run1_130518,AY,1600,A,T,white,center,1,1,419,1,1,616,1,1,1,444272,449072,449688,444691,124462,32,319.81,320.229,324.61,325.226,28.424,260.02,491.616,231.624,463.221,694.817
1,bas,axc,1,130518,bas_axc_run1_130518,BY,4000,P,H,white,center,1,1,374,1,1,331,1,1,1,451471,456270,456601,451845,124462,33,327.009,327.383,331.808,332.139,28.424,260.02,491.616,231.624,463.221,694.817
1,bas,axc,1,130518,bas_axc_run1_130518,Ang,4000,A,9,white,center,1,,373,1,1,0,1,,1,461070,465869,0,461443,124462,34,336.608,336.981,341.407,-124.462,28.424,260.02,491.616,231.624,463.221,694.817
1,bas,axc,1,130518,bas_axc_run1_130518,BY,4000,N,U,white,center,1,1,464,1,1,546,1,1,1,470668,475484,476030,471132,124462,35,346.206,346.67,351.022,351.568,28.424,260.02,491.616,231.624,463.221,694.817
1,bas,axc,1,130518,bas_axc_run1_130518,AX,1600,A,X,white,center,1,2,455,1,1,457,1,2,1,480283,485082,485539,480738,124462,36,355.821,356.276,360.62,361.077,28.424,260.02,491.616,231.624,463.221,694.817
1,bas,axc,1,130518,bas_axc_run1_130518,AX,2800,A,X,white,center,1,2,496,1,1,331,1,2,1,487482,492281,492612,487978,124462,37,363.02,363.516,367.819,368.15,28.424,260.02,491.616,231.624,463.221,694.817
1,bas,axc,1,130518,bas_axc_run1_130518,BY,1600,P,M,white,center,1,1,500,1,1,473,0,2,0,495881,500680,501153,496381,124462,38,371.419,371.919,376.218,376.691,28.424,260.02,491.616,231.624,463.221,694.817
1,bas,axc,1,130518,bas_axc_run1_130518,AX,2800,A,X,white,center,1,2,392,1,1,327,1,2,1,503080,507879,508206,503472,124462,39,378.618,379.01,383.417,383.744,28.424,260.02,491.616,231.624,463.221,694.817
1,bas,axc,1,130518,bas_axc_run1_130518,AX,4000,A,X,white,center,1,2,321,1,1,364,1,2,1,511478,516277,516641,511799,124462,40,387.016,387.337,391.815,392.179,28.424,260.02,491.616,231.624,463.221,694.817
1,bas,axc,1,130518,bas_axc_run1_130518,Ang,1600,A,1,white,center,1,,353,1,1,0,1,,1,521077,525876,0,521430,124462,41,396.615,396.968,401.414,-124.462,28.424,260.02,491.616,231.624,463.221,694.817
1,bas,axc,1,130518,bas_axc_run1_130518,BY,4000,C,M,white,center,1,1,493,1,1,486,1,1,1,528275,533075,533561,528768,124462,42,403.813,404.306,408.613,409.099,28.424,260.02,491.616,231.624,463.221,694.817
1,bas,axc,1,130518,bas_axc_run1_130518,AX,2800,A,X,white,center,1,2,459,1,1,552,1,2,1,537874,542673,543225,538333,124462,43,413.412,413.871,418.211,418.763,28.424,260.02,491.616,231.624,463.221,694.817
1,bas,axc,1,130518,bas_axc_run1_130518,BX,1600,F,X,white,center,1,1,593,1,1,727,1,1,1,546273,551072,551799,546866,124462,44,421.811,422.404,426.61,427.337,28.424,260.02,491.616,231.624,463.221,694.817
1,bas,axc,1,130518,bas_axc_run1_130518,BY,4000,N,P,white,center,1,1,397,1,1,449,1,1,1,553471,558271,558720,553868,124462,45,429.009,429.406,433.809,434.258,28.424,260.02,491.616,231.624,463.221,694.817
1,bas,axc,1,130518,bas_axc_run1_130518,AX,1600,A,X,white,center,1,2,532,1,1,461,1,2,1,563070,567869,568330,563602,124462,46,438.608,439.14,443.407,443.868,28.424,260.02,491.616,231.624,463.221,694.817
1,bas,axc,1,130518,bas_axc_run1_130518,AY,2800,A,D,white,center,1,1,381,1,1,470,1,1,1,570269,575068,575538,570650,124462,47,445.807,446.188,450.606,451.076,28.424,260.02,491.616,231.624,463.221,694.817
1,bas,axc,1,130518,bas_axc_run1_130518,Bng,4000,C,8,white,center,1,,419,1,1,385,0,1,0,578684,583483,583868,579103,124462,48,454.222,454.641,459.021,459.406,28.424,260.02,491.616,231.624,463.221,694.817
1,bas,axc,1,130518,bas_axc_run1_130518,BY,4000,H,U,white,center,1,1,1208,1,1,405,1,1,1,618278,623077,623482,619486,124462,49,493.816,495.024,498.615,499.02,28.424,260.02,491.616,231.624,463.221,694.817
1,bas,axc,1,130518,bas_axc_run1_130518,AX,1600,A,X,white,center,1,2,470,1,1,334,1,2,1,627876,632675,633009,628346,124462,50,503.414,503.884,508.213,508.547,28.424,260.02,491.616,231.624,463.221,694.817
1,bas,axc,1,130518,bas_axc_run1_130518,BY,2800,F,M,white,center,1,1,435,1,1,511,1,1,1,635075,639874,640385,635510,124462,51,510.613,511.048,515.412,515.923,28.424,260.02,491.616,231.624,463.221,694.817
1,bas,axc,1,130518,bas_axc_run1_130518,Bng,4000,M,4,white,center,1,,473,1,1,0,1,,1,643474,648273,0,643947,124462,52,519.012,519.485,523.811,-124.462,28.424,260.02,491.616,231.624,463.221,694.817
1,bas,axc,1,130518,bas_axc_run1_130518,AY,4000,A,N,white,center,1,1,425,1,1,527,1,1,1,653072,657871,658398,653497,124462,53,528.61,529.035,533.409,533.936,28.424,260.02,491.616,231.624,463.221,694.817
1,bas,axc,1,130518,bas_axc_run1_130518,Ang,1600,A,7,white,center,1,,471,1,1,0,1,,1,662671,667470,0,663142,124462,54,538.209,538.68,543.008,-124.462,28.424,260.02,491.616,231.624,463.221,694.817
1,bas,axc,1,130518,bas_axc_run1_130518,BY,2800,T,M,white,center,1,1,551,1,1,616,1,1,1,669869,674669,675285,670420,124462,55,545.407,545.958,550.207,550.823,28.424,260.02,491.616,231.624,463.221,694.817
1,bas,axc,1,130518,bas_axc_run1_130518,AX,2800,A,X,white,center,1,2,449,1,1,624,1,2,1,678268,683084,683708,678717,124462,56,553.806,554.255,558.622,559.246,28.424,260.02,491.616,231.624,463.221,694.817
1,bas,axc,1,130518,bas_axc_run1_130518,AX,1600,A,X,white,center,1,2,357,1,1,301,1,2,1,686683,691483,691784,687040,124462,57,562.221,562.578,567.021,567.322,28.424,260.02,491.616,231.624,463.221,694.817
1,bas,axc,1,130518,bas_axc_run1_130518,Bng,2800,T,6,white,center,1,,561,1,1,0,1,,1,693882,698681,0,694443,124462,58,569.42,569.981,574.219,-124.462,28.424,260.02,491.616,231.624,463.221,694.817
1,bas,axc,1,130518,bas_axc_run1_130518,AX,4000,A,X,white,center,1,2,389,1,1,554,1,2,1,702281,707080,707634,702670,124462,59,577.819,578.208,582.618,583.172,28.424,260.02,491.616,231.624,463.221,694.817
1,bas,axc,1,130518,bas_axc_run1_130518,AX,1600,A,X,white,center,1,2,389,1,1,465,1,2,1,711879,716679,717144,712268,124462,60,587.417,587.806,592.217,592.682,28.424,260.02,491.616,231.624,463.221,694.817
1,bas,axc,1,130518,bas_axc_run1_130518,BY,1600,H,T,white,center,1,1,435,1,1,455,1,1,1,719078,723877,724332,719513,124462,61,594.616,595.051,599.415,599.87,28.424,260.02,491.616,231.624,463.221,694.817
1,bas,axc,1,130518,bas_axc_run1_130518,BX,2800,C,X,white,center,1,1,398,1,1,706,1,1,1,726277,731076,731782,726675,124462,62,601.815,602.213,606.614,607.32,28.424,260.02,491.616,231.624,463.221,694.817
1,bas,axc,1,130518,bas_axc_run1_130518,Ang,4000,A,5,white,center,1,,408,1,1,0,1,,1,734676,739475,0,735084,124462,63,610.214,610.622,615.013,-124.462,28.424,260.02,491.616,231.624,463.221,694.817
1,bas,axc,1,130518,bas_axc_run1_130518,BY,2800,D,N,white,center,1,1,703,1,1,471,1,1,1,744274,749073,749544,744977,124462,64,619.812,620.515,624.611,625.082,28.424,260.02,491.616,231.624,463.221,694.817
1,bas,axc,1,130518,bas_axc_run1_130518,AY,4000,A,T,white,center,1,1,439,1,1,604,1,1,1,752673,757472,758076,753112,124462,65,628.211,628.65,633.01,633.614,28.424,260.02,491.616,231.624,463.221,694.817
1,bas,axc,1,130518,bas_axc_run1_130518,BX,4000,F,X,white,center,1,1,516,1,1,641,1,1,1,762271,767071,767712,762787,124462,66,637.809,638.325,642.609,643.25,28.424,260.02,491.616,231.624,463.221,694.817
1,bas,axc,1,130518,bas_axc_run1_130518,AX,2800,A,X,white,center,1,2,411,1,1,332,1,2,1,771870,776669,777001,772281,124462,67,647.408,647.819,652.207,652.539,28.424,260.02,491.616,231.624,463.221,694.817
1,bas,axc,1,130518,bas_axc_run1_130518,BY,1600,C,M,white,center,1,1,616,1,1,394,1,1,1,780268,785068,785462,780884,124462,68,655.806,656.422,660.606,661,28.424,260.02,491.616,231.624,463.221,694.817
1,bas,axc,1,130518,bas_axc_run1_130518,BY,2800,F,M,white,center,1,1,425,1,1,355,1,1,1,787484,792283,792638,787909,124462,69,663.022,663.447,667.821,668.176,28.424,260.02,491.616,231.624,463.221,694.817
1,bas,axc,1,130518,bas_axc_run1_130518,AX,1600,A,X,white,center,1,2,612,1,1,452,1,2,1,795883,800682,801134,796495,124462,70,671.421,672.033,676.22,676.672,28.424,260.02,491.616,231.624,463.221,694.817
1,bas,axc,1,130518,bas_axc_run1_130518,AX,1600,A,X,white,center,1,2,361,1,1,296,1,2,1,803081,807881,808177,803442,124462,71,678.619,678.98,683.419,683.715,28.424,260.02,491.616,231.624,463.221,694.817
1,bas,axc,1,130518,bas_axc_run1_130518,BY,4000,M,F,white,center,1,1,497,1,1,395,1,1,1,810280,815080,815475,810777,124462,72,685.818,686.315,690.618,691.013,28.424,260.02,491.616,231.624,463.221,694.817
1,bas,axc,2,130518,bas_axc_run2_130518,Bng,4000,T,1,white,center,1,,1180,1,1,0,1,,1,70978,75777,0,72158,40358,1,30.62,31.8,35.419,-40.358,28.42,260.016,491.613,231.621,463.217,694.83
1,bas,axc,2,130518,bas_axc_run2_130518,AY,1600,A,U,white,center,1,1,370,1,1,446,1,1,1,80576,85376,85822,80946,40358,2,40.218,40.588,45.018,45.464,28.42,260.016,491.613,231.621,463.217,694.83
1,bas,axc,2,130518,bas_axc_run2_130518,BY,4000,F,H,white,center,1,1,344,1,1,352,1,1,1,87775,92574,92926,88119,40358,3,47.417,47.761,52.216,52.568,28.42,260.016,491.613,231.621,463.217,694.83
1,bas,axc,2,130518,bas_axc_run2_130518,AX,1600,A,X,white,center,1,2,332,1,1,291,1,2,1,97374,102173,102464,97706,40358,4,57.016,57.348,61.815,62.106,28.42,260.016,491.613,231.621,463.217,694.83
1,bas,axc,2,130518,bas_axc_run2_130518,AX,2800,A,X,white,center,1,2,348,1,1,334,1,2,1,104572,109372,109706,104920,40358,5,64.214,64.562,69.014,69.348,28.42,260.016,491.613,231.621,463.217,694.83
1,bas,axc,2,130518,bas_axc_run2_130518,BY,1600,D,U,white,center,1,1,461,1,1,397,1,1,1,112971,117770,118167,113432,40358,6,72.613,73.074,77.412,77.809,28.42,260.016,491.613,231.621,463.217,694.83
1,bas,axc,2,130518,bas_axc_run2_130518,BY,4000,M,U,white,center,1,1,349,1,1,701,1,1,1,120170,124969,125670,120519,40358,7,79.812,80.161,84.611,85.312,28.42,260.016,491.613,231.621,463.217,694.83
1,bas,axc,2,130518,bas_axc_run2_130518,AX,2800,A,X,white,center,1,2,499,1,1,317,1,2,1,129768,134568,134885,130267,40358,8,89.41,89.909,94.21,94.527,28.42,260.016,491.613,231.621,463.217,694.83
1,bas,axc,2,130518,bas_axc_run2_130518,AY,2800,A,F,white,center,1,1,320,1,1,461,1,1,1,138167,142966,143427,138487,40358,9,97.809,98.129,102.608,103.069,28.42,260.016,491.613,231.621,463.217,694.83
1,bas,axc,2,130518,bas_axc_run2_130518,AX,1600,A,X,white,center,1,2,347,1,1,338,1,2,1,146566,151365,151703,146913,40358,10,106.208,106.555,111.007,111.345,28.42,260.016,491.613,231.621,463.217,694.83
1,bas,axc,2,130518,bas_axc_run2_130518,Ang,2800,A,6,white,center,1,,302,1,1,0,1,,1,153765,158564,0,154067,40358,11,113.407,113.709,118.206,-40.358,28.42,260.016,491.613,231.621,463.217,694.83
1,bas,axc,2,130518,bas_axc_run2_130518,BY,4000,F,D,white,center,1,1,388,1,1,420,1,1,1,162180,166979,167399,162568,40358,12,121.822,122.21,126.621,127.041,28.42,260.016,491.613,231.621,463.217,694.83
1,bas,axc,2,130518,bas_axc_run2_130518,BX,1600,D,X,white,center,1,1,338,1,1,748,0,2,0,171778,176578,177326,172116,40358,13,131.42,131.758,136.22,136.968,28.42,260.016,491.613,231.621,463.217,694.83
1,bas,axc,2,130518,bas_axc_run2_130518,AX,4000,A,X,white,center,1,2,389,1,1,389,1,2,1,178977,183776,184165,179366,40358,14,138.619,139.008,143.418,143.807,28.42,260.016,491.613,231.621,463.217,694.83
1,bas,axc,2,130518,bas_axc_run2_130518,BY,2800,H,F,white,center,1,1,509,1,1,427,1,1,1,188576,193375,193802,189085,40358,15,148.218,148.727,153.017,153.444,28.42,260.016,491.613,231.621,463.217,694.83
1,bas,axc,2,130518,bas_axc_run2_130518,Ang,1600,A,8,white,center,1,,507,1,1,0,1,,1,196974,201774,0,197481,40358,16,156.616,157.123,161.416,-40.358,28.42,260.016,491.613,231.621,463.217,694.83
1,bas,axc,2,130518,bas_axc_run2_130518,BY,2800,U,F,white,center,1,1,519,1,1,509,1,1,1,204173,208972,209481,204692,40358,17,163.815,164.334,168.614,169.123,28.42,260.016,491.613,231.621,463.217,694.83
1,bas,axc,2,130518,bas_axc_run2_130518,BX,2800,T,X,white,center,1,1,570,1,1,411,1,1,1,212572,217371,217782,213142,40358,18,172.214,172.784,177.013,177.424,28.42,260.016,491.613,231.621,463.217,694.83
1,bas,axc,2,130518,bas_axc_run2_130518,BY,2800,C,N,white,center,1,1,403,1,1,400,1,1,1,220970,225770,226170,221373,40358,19,180.612,181.015,185.412,185.812,28.42,260.016,491.613,231.621,463.217,694.83
1,bas,axc,2,130518,bas_axc_run2_130518,AX,4000,A,X,white,center,1,2,433,1,1,302,1,2,1,229369,234168,234470,229802,40358,20,189.011,189.444,193.81,194.112,28.42,260.016,491.613,231.621,463.217,694.83
1,bas,axc,2,130518,bas_axc_run2_130518,AX,4000,A,X,white,center,1,2,449,1,1,337,1,2,1,238968,243767,244104,239417,40358,21,198.61,199.059,203.409,203.746,28.42,260.016,491.613,231.621,463.217,694.83
1,bas,axc,2,130518,bas_axc_run2_130518,AX,4000,A,X,white,center,1,2,606,1,1,314,1,2,1,248566,253365,253679,249172,40358,22,208.208,208.814,213.007,213.321,28.42,260.016,491.613,231.621,463.217,694.83
1,bas,axc,2,130518,bas_axc_run2_130518,BY,1600,C,F,white,center,1,1,490,1,1,464,1,1,1,258164,262964,263428,258654,40358,23,217.806,218.296,222.606,223.07,28.42,260.016,491.613,231.621,463.217,694.83
1,bas,axc,2,130518,bas_axc_run2_130518,Bng,1600,D,3,white,center,1,,501,1,1,0,1,,1,265380,270179,0,265881,40358,24,225.022,225.523,229.821,-40.358,28.42,260.016,491.613,231.621,463.217,694.83
1,bas,axc,2,130518,bas_axc_run2_130518,BY,4000,P,T,white,center,1,1,576,1,1,579,1,1,1,302574,307373,307952,303150,40358,25,262.216,262.792,267.015,267.594,28.42,260.016,491.613,231.621,463.217,694.83
1,bas,axc,2,130518,bas_axc_run2_130518,AX,4000,A,X,white,center,1,2,460,1,1,356,1,2,1,312172,316972,317328,312632,40358,26,271.814,272.274,276.614,276.97,28.42,260.016,491.613,231.621,463.217,694.83
1,bas,axc,2,130518,bas_axc_run2_130518,BY,1600,M,N,white,center,1,1,412,1,1,448,1,1,1,321771,326570,327018,322183,40358,27,281.413,281.825,286.212,286.66,28.42,260.016,491.613,231.621,463.217,694.83
1,bas,axc,2,130518,bas_axc_run2_130518,AX,2800,A,X,white,center,1,2,775,1,1,347,1,2,1,328970,333769,334116,329745,40358,28,288.612,289.387,293.411,293.758,28.42,260.016,491.613,231.621,463.217,694.83
1,bas,axc,2,130518,bas_axc_run2_130518,AX,2800,A,X,white,center,1,2,406,1,1,319,1,2,1,337368,342168,342487,337774,40358,29,297.01,297.416,301.81,302.129,28.42,260.016,491.613,231.621,463.217,694.83
1,bas,axc,2,130518,bas_axc_run2_130518,AX,1600,A,X,white,center,1,2,335,1,1,347,1,2,1,345767,350566,350913,346102,40358,30,305.409,305.744,310.208,310.555,28.42,260.016,491.613,231.621,463.217,694.83
1,bas,axc,2,130518,bas_axc_run2_130518,AX,1600,A,X,white,center,1,2,305,1,1,371,1,2,1,352966,357765,358136,353271,40358,31,312.608,312.913,317.407,317.778,28.42,260.016,491.613,231.621,463.217,694.83
1,bas,axc,2,130518,bas_axc_run2_130518,AX,4000,A,X,white,center,1,2,678,1,1,382,1,2,1,360165,364964,365346,360843,40358,32,319.807,320.485,324.606,324.988,28.42,260.016,491.613,231.621,463.217,694.83
1,bas,axc,2,130518,bas_axc_run2_130518,AY,4000,A,C,white,center,1,1,304,1,1,592,1,1,1,369780,374579,375171,370084,40358,33,329.422,329.726,334.221,334.813,28.42,260.016,491.613,231.621,463.217,694.83
1,bas,axc,2,130518,bas_axc_run2_130518,BY,2800,T,H,white,center,1,1,434,1,1,344,1,1,1,379378,384178,384522,379812,40358,34,339.02,339.454,343.82,344.164,28.42,260.016,491.613,231.621,463.217,694.83
1,bas,axc,2,130518,bas_axc_run2_130518,BX,2800,H,X,white,center,1,1,322,1,1,378,1,1,1,387777,392576,392954,388099,40358,35,347.419,347.741,352.218,352.596,28.42,260.016,491.613,231.621,463.217,694.83
1,bas,axc,2,130518,bas_axc_run2_130518,BY,1600,N,D,white,center,1,1,377,1,1,338,1,1,1,396176,400975,401313,396553,40358,36,355.818,356.195,360.617,360.955,28.42,260.016,491.613,231.621,463.217,694.83
1,bas,axc,2,130518,bas_axc_run2_130518,AX,4000,A,X,white,center,1,2,419,1,1,338,1,2,1,403374,408174,408512,403793,40358,37,363.016,363.435,367.816,368.154,28.42,260.016,491.613,231.621,463.217,694.83
1,bas,axc,2,130518,bas_axc_run2_130518,BY,2800,P,C,white,center,1,1,376,1,1,330,1,1,1,412973,417772,418102,413349,40358,38,372.615,372.991,377.414,377.744,28.42,260.016,491.613,231.621,463.217,694.83
1,bas,axc,2,130518,bas_axc_run2_130518,Ang,1600,A,4,white,center,1,,402,1,1,0,1,,1,421372,426171,0,421774,40358,39,381.014,381.416,385.813,-40.358,28.42,260.016,491.613,231.621,463.217,694.83
1,bas,axc,2,130518,bas_axc_run2_130518,AX,4000,A,X,white,center,1,2,280,1,1,356,1,2,1,428570,433370,433726,428850,40358,40,388.212,388.492,393.012,393.368,28.42,260.016,491.613,231.621,463.217,694.83
1,bas,axc,2,130518,bas_axc_run2_130518,Bng,1600,N,2,white,center,1,,427,1,1,0,1,,1,438169,442968,0,438596,40358,41,397.811,398.238,402.61,-40.358,28.42,260.016,491.613,231.621,463.217,694.83
1,bas,axc,2,130518,bas_axc_run2_130518,AY,4000,A,P,white,center,1,1,363,1,1,808,1,1,1,445368,450167,450975,445731,40358,42,405.01,405.373,409.809,410.617,28.42,260.016,491.613,231.621,463.217,694.83
1,bas,axc,2,130518,bas_axc_run2_130518,BX,2800,N,X,white,center,1,1,442,1,1,648,1,1,1,454966,459765,460413,455408,40358,43,414.608,415.05,419.407,420.055,28.42,260.016,491.613,231.621,463.217,694.83
1,bas,axc,2,130518,bas_axc_run2_130518,BY,1600,U,T,white,center,1,1,315,1,1,312,1,1,1,463365,468164,468476,463680,40358,44,423.007,423.322,427.806,428.118,28.42,260.016,491.613,231.621,463.217,694.83
1,bas,axc,2,130518,bas_axc_run2_130518,Bng,2800,F,6,white,center,1,,367,1,1,0,1,,1,470564,475380,0,470931,40358,45,430.206,430.573,435.022,-40.358,28.42,260.016,491.613,231.621,463.217,694.83
1,bas,axc,2,130518,bas_axc_run2_130518,BY,1600,H,C,white,center,1,1,420,1,1,427,1,1,1,478979,483778,484205,479399,40358,46,438.621,439.041,443.42,443.847,28.42,260.016,491.613,231.621,463.217,694.83
1,bas,axc,2,130518,bas_axc_run2_130518,Ang,4000,A,2,white,center,1,,490,1,1,0,1,,1,486178,490977,0,486668,40358,47,445.82,446.31,450.619,-40.358,28.42,260.016,491.613,231.621,463.217,694.83
1,bas,axc,2,130518,bas_axc_run2_130518,BY,2800,N,H,white,center,1,1,398,1,1,438,1,1,1,495776,500576,501014,496174,40358,48,455.418,455.816,460.218,460.656,28.42,260.016,491.613,231.621,463.217,694.83
1,bas,axc,2,130518,bas_axc_run2_130518,BY,4000,D,C,white,center,1,1,652,1,1,464,1,1,1,534170,538969,539433,534822,40358,49,493.812,494.464,498.611,499.075,28.42,260.016,491.613,231.621,463.217,694.83
1,bas,axc,2,130518,bas_axc_run2_130518,AX,2800,A,X,white,center,1,2,932,1,1,332,1,2,1,543769,548568,548900,544701,40358,50,503.411,504.343,508.21,508.542,28.42,260.016,491.613,231.621,463.217,694.83
1,bas,axc,2,130518,bas_axc_run2_130518,Ang,4000,A,4,white,center,1,,341,1,1,0,1,,1,552167,556967,0,552508,40358,51,511.809,512.15,516.609,-40.358,28.42,260.016,491.613,231.621,463.217,694.83
1,bas,axc,2,130518,bas_axc_run2_130518,Ang,2800,A,8,white,center,1,,325,1,1,0,1,,1,561766,566565,0,562091,40358,52,521.408,521.733,526.207,-40.358,28.42,260.016,491.613,231.621,463.217,694.83
1,bas,axc,2,130518,bas_axc_run2_130518,AX,2800,A,X,white,center,1,2,311,1,1,372,1,2,1,570164,574964,575336,570475,40358,53,529.806,530.117,534.606,534.978,28.42,260.016,491.613,231.621,463.217,694.83
1,bas,axc,2,130518,bas_axc_run2_130518,BY,1600,T,P,white,center,1,1,367,1,1,438,1,1,1,578580,583379,583817,578947,40358,54,538.222,538.589,543.021,543.459,28.42,260.016,491.613,231.621,463.217,694.83
1,bas,axc,2,130518,bas_axc_run2_130518,Bng,2800,C,3,white,center,1,,0,0,,397,0,1,0,585779,590578,590975,0,40358,55,545.421,-40.358,550.22,550.617,28.42,260.016,491.613,231.621,463.217,694.83
1,bas,axc,2,130518,bas_axc_run2_130518,AX,1600,A,X,white,center,1,2,436,1,1,1130,0,1,0,594177,598976,600106,594613,40358,56,553.819,554.255,558.618,559.748,28.42,260.016,491.613,231.621,463.217,694.83
1,bas,axc,2,130518,bas_axc_run2_130518,BY,1600,F,H,white,center,1,1,367,1,1,573,1,1,1,601376,606175,606748,601743,40358,57,561.018,561.385,565.817,566.39,28.42,260.016,491.613,231.621,463.217,694.83
1,bas,axc,2,130518,bas_axc_run2_130518,AX,1600,A,X,white,center,1,2,902,1,1,346,1,2,1,608575,613374,613720,609477,40358,58,568.217,569.119,573.016,573.362,28.42,260.016,491.613,231.621,463.217,694.83
1,bas,axc,2,130518,bas_axc_run2_130518,AY,4000,A,M,white,center,1,1,952,1,1,721,1,1,1,615774,620573,621294,616726,40358,59,575.416,576.368,580.215,580.936,28.42,260.016,491.613,231.621,463.217,694.83
1,bas,axc,2,130518,bas_axc_run2_130518,BY,4000,P,C,white,center,1,1,1496,1,1,358,1,1,1,625372,630171,630529,626868,40358,60,585.014,586.51,589.813,590.171,28.42,260.016,491.613,231.621,463.217,694.83
1,bas,axc,2,130518,bas_axc_run2_130518,BX,4000,T,X,white,center,1,1,365,1,1,567,1,1,1,634971,639770,640337,635336,40358,61,594.613,594.978,599.412,599.979,28.42,260.016,491.613,231.621,463.217,694.83
1,bas,axc,2,130518,bas_axc_run2_130518,BY,2800,N,H,white,center,1,1,431,1,1,401,1,1,1,644569,649368,649769,645000,40358,62,604.211,604.642,609.01,609.411,28.42,260.016,491.613,231.621,463.217,694.83
1,bas,axc,2,130518,bas_axc_run2_130518,Bng,2800,M,8,white,center,1,,711,1,1,0,1,,1,652968,657767,0,653679,40358,63,612.61,613.321,617.409,-40.358,28.42,260.016,491.613,231.621,463.217,694.83
1,bas,axc,2,130518,bas_axc_run2_130518,AX,4000,A,X,white,center,1,2,465,1,1,384,1,2,1,661366,666166,666550,661831,40358,64,621.008,621.473,625.808,626.192,28.42,260.016,491.613,231.621,463.217,694.83
1,bas,axc,2,130518,bas_axc_run2_130518,BY,1600,H,F,white,center,1,1,349,1,1,470,1,1,1,670965,675764,676234,671314,40358,65,630.607,630.956,635.406,635.876,28.42,260.016,491.613,231.621,463.217,694.83
1,bas,axc,2,130518,bas_axc_run2_130518,BY,1600,D,C,white,center,1,1,563,1,1,551,1,1,1,678164,682980,683531,678727,40358,66,637.806,638.369,642.622,643.173,28.42,260.016,491.613,231.621,463.217,694.83
1,bas,axc,2,130518,bas_axc_run2_130518,AX,1600,A,X,white,center,1,2,649,1,1,414,1,2,1,685379,690179,690593,686028,40358,67,645.021,645.67,649.821,650.235,28.42,260.016,491.613,231.621,463.217,694.83
1,bas,axc,2,130518,bas_axc_run2_130518,BY,2800,C,N,white,center,1,1,420,1,1,542,1,1,1,692578,697377,697919,692998,40358,68,652.22,652.64,657.019,657.561,28.42,260.016,491.613,231.621,463.217,694.83
1,bas,axc,2,130518,bas_axc_run2_130518,AY,4000,A,M,white,center,1,1,0,0,,550,1,1,0,700977,705776,706326,0,40358,69,660.619,-40.358,665.418,665.968,28.42,260.016,491.613,231.621,463.217,694.83
1,bas,axc,2,130518,bas_axc_run2_130518,BX,1600,N,X,white,center,1,1,434,1,1,780,1,1,1,710575,715374,716154,711009,40358,70,670.217,670.651,675.016,675.796,28.42,260.016,491.613,231.621,463.217,694.83
1,bas,axc,2,130518,bas_axc_run2_130518,AX,4000,A,X,white,center,1,2,520,1,1,331,1,2,1,717774,722573,722904,718294,40358,71,677.416,677.936,682.215,682.546,28.42,260.016,491.613,231.621,463.217,694.83
1,bas,axc,2,130518,bas_axc_run2_130518,AX,2800,A,X,white,center,1,2,359,1,1,556,1,2,1,727373,732172,732728,727732,40358,72,687.015,687.374,691.814,692.37,28.42,260.016,491.613,231.621,463.217,694.83
1,pro,axc,1,130518,pro_axc_run1_130518,BX,1600,T,X,white,center,1,1,701,1,1,888,0,2,0,238903,243702,244590,239604,208288,1,30.615,31.316,35.414,36.302,28.415,260.029,491.625,231.633,463.23,694.826
1,pro,axc,1,130518,pro_axc_run1_130518,Bng,4000,U,6,white,center,1,,521,1,1,0,1,,1,246102,250901,0,246623,208288,2,37.814,38.335,42.613,-208.288,28.415,260.029,491.625,231.633,463.23,694.826
1,pro,axc,1,130518,pro_axc_run1_130518,AX,1600,A,X,white,center,1,2,589,1,1,384,1,2,1,255700,260500,260884,256289,208288,3,47.412,48.001,52.212,52.596,28.415,260.029,491.625,231.633,463.23,694.826
1,pro,axc,1,130518,pro_axc_run1_130518,AX,4000,A,X,white,center,1,2,388,1,1,304,1,2,1,262916,267715,268019,263304,208288,4,54.628,55.016,59.427,59.731,28.415,260.029,491.625,231.633,463.23,694.826
1,pro,axc,1,130518,pro_axc_run1_130518,BY,1600,M,U,white,center,1,1,458,1,1,366,1,1,1,272514,277314,277680,272972,208288,5,64.226,64.684,69.026,69.392,28.415,260.029,491.625,231.633,463.23,694.826
1,pro,axc,1,130518,pro_axc_run1_130518,Bng,2800,C,3,white,center,1,,357,1,1,0,1,,1,279713,284512,0,280070,208288,6,71.425,71.782,76.224,-208.288,28.415,260.029,491.625,231.633,463.23,694.826
1,pro,axc,1,130518,pro_axc_run1_130518,BY,2800,H,F,white,center,1,1,525,1,1,405,1,1,1,288112,292911,293316,288637,208288,7,79.824,80.349,84.623,85.028,28.415,260.029,491.625,231.633,463.23,694.826
1,pro,axc,1,130518,pro_axc_run1_130518,AX,2800,A,X,white,center,1,2,483,1,1,260,1,2,1,296511,301310,301570,296994,208288,8,88.223,88.706,93.022,93.282,28.415,260.029,491.625,231.633,463.23,694.826
1,pro,axc,1,130518,pro_axc_run1_130518,AX,1600,A,X,white,center,1,2,376,1,1,526,1,2,1,304909,309708,310234,305285,208288,9,96.621,96.997,101.42,101.946,28.415,260.029,491.625,231.633,463.23,694.826
1,pro,axc,1,130518,pro_axc_run1_130518,BX,2800,D,X,white,center,1,1,342,1,1,320,1,1,1,312108,316907,317227,312450,208288,10,103.82,104.162,108.619,108.939,28.415,260.029,491.625,231.633,463.23,694.826
1,pro,axc,1,130518,pro_axc_run1_130518,Ang,4000,A,8,white,center,1,,417,1,1,0,1,,1,320507,325306,0,320924,208288,11,112.219,112.636,117.018,-208.288,28.415,260.029,491.625,231.633,463.23,694.826
1,pro,axc,1,130518,pro_axc_run1_130518,AX,4000,A,X,white,center,1,2,404,1,1,216,1,2,1,330105,334904,335120,330509,208288,12,121.817,122.221,126.616,126.832,28.415,260.029,491.625,231.633,463.23,694.826
1,pro,axc,1,130518,pro_axc_run1_130518,Ang,1600,A,2,white,center,1,,390,1,1,0,1,,1,339704,344503,0,340094,208288,13,131.416,131.806,136.215,-208.288,28.415,260.029,491.625,231.633,463.23,694.826
1,pro,axc,1,130518,pro_axc_run1_130518,AX,4000,A,X,white,center,1,2,269,1,1,297,1,2,1,346903,351702,351999,347172,208288,14,138.615,138.884,143.414,143.711,28.415,260.029,491.625,231.633,463.23,694.826
1,pro,axc,1,130518,pro_axc_run1_130518,AY,1600,A,C,white,center,1,1,302,1,1,322,0,2,0,356501,361300,361622,356803,208288,15,148.213,148.515,153.012,153.334,28.415,260.029,491.625,231.633,463.23,694.826
1,pro,axc,1,130518,pro_axc_run1_130518,BY,4000,T,P,white,center,1,1,243,1,1,318,1,1,1,363700,368516,368834,363943,208288,16,155.412,155.655,160.228,160.546,28.415,260.029,491.625,231.633,463.23,694.826
1,pro,axc,1,130518,pro_axc_run1_130518,AY,4000,A,P,white,center,1,1,419,1,1,438,1,1,1,373315,378114,378552,373734,208288,17,165.027,165.446,169.826,170.264,28.415,260.029,491.625,231.633,463.23,694.826
1,pro,axc,1,130518,pro_axc_run1_130518,AX,1600,A,X,white,center,1,2,422,1,1,759,1,2,1,382914,387713,388472,383336,208288,18,174.626,175.048,179.425,180.184,28.415,260.029,491.625,231.633,463.23,694.826
1,pro,axc,1,130518,pro_axc_run1_130518,BY,2800,U,F,white,center,1,1,262,1,1,365,1,1,1,390112,394912,395277,390374,208288,19,181.824,182.086,186.624,186.989,28.415,260.029,491.625,231.633,463.23,694.826
1,pro,axc,1,130518,pro_axc_run1_130518,AX,2800,A,X,white,center,1,2,422,1,1,342,1,2,1,398511,403310,403652,398933,208288,20,190.223,190.645,195.022,195.364,28.415,260.029,491.625,231.633,463.23,694.826
1,pro,axc,1,130518,pro_axc_run1_130518,BY,4000,C,F,white,center,1,1,319,1,1,360,1,1,1,406910,411709,412069,407229,208288,21,198.622,198.941,203.421,203.781,28.415,260.029,491.625,231.633,463.23,694.826
1,pro,axc,1,130518,pro_axc_run1_130518,BY,2800,H,C,white,center,1,1,376,1,1,478,1,1,1,416508,421307,421785,416884,208288,22,208.22,208.596,213.019,213.497,28.415,260.029,491.625,231.633,463.23,694.826
1,pro,axc,1,130518,pro_axc_run1_130518,BY,1600,D,U,white,center,1,1,384,1,1,428,1,1,1,424907,429706,430134,425291,208288,23,216.619,217.003,221.418,221.846,28.415,260.029,491.625,231.633,463.23,694.826
1,pro,axc,1,130518,pro_axc_run1_130518,BY,2800,P,C,white,center,1,1,367,1,1,398,1,1,1,432106,436905,437303,432473,208288,24,223.818,224.185,228.617,229.015,28.415,260.029,491.625,231.633,463.23,694.826
1,pro,axc,1,130518,pro_axc_run1_130518,BY,1600,U,T,white,center,1,1,429,1,1,340,1,1,1,470500,475316,475656,470929,208288,25,262.212,262.641,267.028,267.368,28.415,260.029,491.625,231.633,463.23,694.826
1,pro,axc,1,130518,pro_axc_run1_130518,AX,4000,A,X,white,center,1,2,380,1,1,0,0,,0,477715,482514,0,478095,208288,26,269.427,269.807,274.226,-208.288,28.415,260.029,491.625,231.633,463.23,694.826
1,pro,axc,1,130518,pro_axc_run1_130518,AX,4000,A,X,white,center,1,2,379,1,1,204,1,2,1,487314,492113,492317,487693,208288,27,279.026,279.405,283.825,284.029,28.415,260.029,491.625,231.633,463.23,694.826
1,pro,axc,1,130518,pro_axc_run1_130518,BY,2800,T,H,white,center,1,1,358,1,1,342,1,1,1,496912,501711,502053,497270,208288,28,288.624,288.982,293.423,293.765,28.415,260.029,491.625,231.633,463.23,694.826
1,pro,axc,1,130518,pro_axc_run1_130518,AY,1600,A,M,white,center,1,1,378,1,1,526,1,1,1,505311,510110,510636,505689,208288,29,297.023,297.401,301.822,302.348,28.415,260.029,491.625,231.633,463.23,694.826
1,pro,axc,1,130518,pro_axc_run1_130518,AX,2800,A,X,white,center,1,2,329,1,1,348,1,2,1,512510,517309,517657,512839,208288,30,304.222,304.551,309.021,309.369,28.415,260.029,491.625,231.633,463.23,694.826
1,pro,axc,1,130518,pro_axc_run1_130518,BY,4000,N,H,white,center,1,1,250,1,1,338,1,1,1,520908,525708,526046,521158,208288,31,312.62,312.87,317.42,317.758,28.415,260.029,491.625,231.633,463.23,694.826
1,pro,axc,1,130518,pro_axc_run1_130518,BY,1600,F,D,white,center,1,1,369,1,1,325,1,1,1,530507,535306,535631,530876,208288,32,322.219,322.588,327.018,327.343,28.415,260.029,491.625,231.633,463.23,694.826
1,pro,axc,1,130518,pro_axc_run1_130518,AX,2800,A,X,white,center,1,2,508,1,1,289,1,2,1,537706,542505,542794,538214,208288,33,329.418,329.926,334.217,334.506,28.415,260.029,491.625,231.633,463.23,694.826
1,pro,axc,1,130518,pro_axc_run1_130518,BY,2800,C,N,white,center,1,1,414,1,1,338,1,1,1,546104,550904,551242,546518,208288,34,337.816,338.23,342.616,342.954,28.415,260.029,491.625,231.633,463.23,694.826
1,pro,axc,1,130518,pro_axc_run1_130518,AX,1600,A,X,white,center,1,2,363,1,1,216,1,2,1,554503,559302,559518,554866,208288,35,346.215,346.578,351.014,351.23,28.415,260.029,491.625,231.633,463.23,694.826
1,pro,axc,1,130518,pro_axc_run1_130518,Bng,4000,F,3,white,center,1,,634,1,1,361,0,1,0,561702,566501,566862,562336,208288,36,353.414,354.048,358.213,358.574,28.415,260.029,491.625,231.633,463.23,694.826
1,pro,axc,1,130518,pro_axc_run1_130518,BY,1600,D,C,white,center,1,1,393,1,1,397,1,1,1,571300,576100,576497,571693,208288,37,363.012,363.405,367.812,368.209,28.415,260.029,491.625,231.633,463.23,694.826
1,pro,axc,1,130518,pro_axc_run1_130518,BX,1600,H,X,white,center,1,1,293,1,1,390,1,1,1,578516,583315,583705,578809,208288,38,370.228,370.521,375.027,375.417,28.415,260.029,491.625,231.633,463.23,694.826
1,pro,axc,1,130518,pro_axc_run1_130518,BX,2800,N,X,white,center,1,1,321,1,1,377,1,1,1,585715,590514,590891,586036,208288,39,377.427,377.748,382.226,382.603,28.415,260.029,491.625,231.633,463.23,694.826
1,pro,axc,1,130518,pro_axc_run1_130518,AX,2800,A,X,white,center,1,2,307,1,1,510,1,2,1,594113,598913,599423,594420,208288,40,385.825,386.132,390.625,391.135,28.415,260.029,491.625,231.633,463.23,694.826
1,pro,axc,1,130518,pro_axc_run1_130518,BY,4000,P,T,white,center,1,1,306,1,1,345,1,1,1,602512,607311,607656,602818,208288,41,394.224,394.53,399.023,399.368,28.415,260.029,491.625,231.633,463.23,694.826
1,pro,axc,1,130518,pro_axc_run1_130518,Bng,4000,D,1,white,center,1,,343,1,1,0,1,,1,612111,616910,0,612454,208288,42,403.823,404.166,408.622,-208.288,28.415,260.029,491.625,231.633,463.23,694.826
1,pro,axc,1,130518,pro_axc_run1_130518,AX,4000,A,X,white,center,1,2,443,1,1,304,1,2,1,621709,626508,626812,622152,208288,43,413.421,413.864,418.22,418.524,28.415,260.029,491.625,231.633,463.23,694.826
1,pro,axc,1,130518,pro_axc_run1_130518,Ang,2800,A,4,white,center,1,,332,1,1,0,1,,1,631307,636107,0,631639,208288,44,423.019,423.351,427.819,-208.288,28.415,260.029,491.625,231.633,463.23,694.826
1,pro,axc,1,130518,pro_axc_run1_130518,AX,2800,A,X,white,center,1,2,294,1,1,340,1,2,1,639706,644505,644845,640000,208288,45,431.418,431.712,436.217,436.557,28.415,260.029,491.625,231.633,463.23,694.826
1,pro,axc,1,130518,pro_axc_run1_130518,Ang,1600,A,6,white,center,1,,314,1,1,0,1,,1,648105,652904,0,648419,208288,46,439.817,440.131,444.616,-208.288,28.415,260.029,491.625,231.633,463.23,694.826
1,pro,axc,1,130518,pro_axc_run1_130518,AY,4000,A,F,white,center,1,1,304,1,1,655,1,1,1,655304,660103,660758,655608,208288,47,447.016,447.32,451.815,452.47,28.415,260.029,491.625,231.633,463.23,694.826
1,pro,axc,1,130518,pro_axc_run1_130518,BY,1600,N,D,white,center,1,1,557,1,1,974,1,1,1,664902,669701,670675,665459,208288,48,456.614,457.171,461.413,462.387,28.415,260.029,491.625,231.633,463.23,694.826
1,pro,axc,1,130518,pro_axc_run1_130518,AX,4000,A,X,white,center,1,2,294,1,1,295,1,2,1,702113,706912,707207,702407,208288,49,493.825,494.119,498.624,498.919,28.415,260.029,491.625,231.633,463.23,694.826
1,pro,axc,1,130518,pro_axc_run1_130518,BY,2800,F,H,white,center,1,1,487,1,1,357,1,1,1,711711,716511,716868,712198,208288,50,503.423,503.91,508.223,508.58,28.415,260.029,491.625,231.633,463.23,694.826
1,pro,axc,1,130518,pro_axc_run1_130518,BY,2800,M,N,white,center,1,1,341,1,1,364,1,1,1,720110,724909,725273,720451,208288,51,511.822,512.163,516.621,516.985,28.415,260.029,491.625,231.633,463.23,694.826
1,pro,axc,1,130518,pro_axc_run1_130518,AX,2800,A,X,white,center,1,2,421,1,1,335,1,2,1,728509,733308,733643,728930,208288,52,520.221,520.642,525.02,525.355,28.415,260.029,491.625,231.633,463.23,694.826
1,pro,axc,1,130518,pro_axc_run1_130518,Bng,4000,D,3,white,center,1,,448,1,1,0,1,,1,736907,741707,0,737355,208288,53,528.619,529.067,533.419,-208.288,28.415,260.029,491.625,231.633,463.23,694.826
1,pro,axc,1,130518,pro_axc_run1_130518,Ang,1600,A,2,white,center,1,,404,1,1,0,1,,1,746506,751305,0,746910,208288,54,538.218,538.622,543.017,-208.288,28.415,260.029,491.625,231.633,463.23,694.826
1,pro,axc,1,130518,pro_axc_run1_130518,Bng,1600,H,1,white,center,1,,324,1,1,0,1,,1,753705,758504,0,754029,208288,55,545.417,545.741,550.216,-208.288,28.415,260.029,491.625,231.633,463.23,694.826
1,pro,axc,1,130518,pro_axc_run1_130518,BY,1600,M,N,white,center,1,1,306,1,1,364,1,1,1,760904,765703,766067,761210,208288,56,552.616,552.922,557.415,557.779,28.415,260.029,491.625,231.633,463.23,694.826
1,pro,axc,1,130518,pro_axc_run1_130518,AX,1600,A,X,white,center,1,2,285,1,1,352,1,2,1,768102,772902,773254,768387,208288,57,559.814,560.099,564.614,564.966,28.415,260.029,491.625,231.633,463.23,694.826
1,pro,axc,1,130518,pro_axc_run1_130518,BX,4000,H,X,white,center,1,1,235,1,1,380,1,1,1,775301,780101,780481,775536,208288,58,567.013,567.248,571.813,572.193,28.415,260.029,491.625,231.633,463.23,694.826
1,pro,axc,1,130518,pro_axc_run1_130518,AX,2800,A,X,white,center,1,2,411,1,1,359,1,2,1,784900,789716,790075,785311,208288,59,576.612,577.023,581.428,581.787,28.415,260.029,491.625,231.633,463.23,694.826
1,pro,axc,1,130518,pro_axc_run1_130518,BY,4000,H,F,white,center,1,1,615,1,1,463,1,1,1,793315,798114,798577,793930,208288,60,585.027,585.642,589.826,590.289,28.415,260.029,491.625,231.633,463.23,694.826
1,pro,axc,1,130518,pro_axc_run1_130518,BY,4000,N,D,white,center,1,1,443,1,1,363,1,1,1,802914,807713,808076,803357,208288,61,594.626,595.069,599.425,599.788,28.415,260.029,491.625,231.633,463.23,694.826
1,pro,axc,1,130518,pro_axc_run1_130518,BY,4000,H,C,white,center,1,1,518,1,1,322,1,1,1,812512,817311,817633,813030,208288,62,604.224,604.742,609.023,609.345,28.415,260.029,491.625,231.633,463.23,694.826
1,pro,axc,1,130518,pro_axc_run1_130518,AX,4000,A,X,white,center,1,2,286,1,1,0,0,,0,822111,826910,0,822397,208288,63,613.823,614.109,618.622,-208.288,28.415,260.029,491.625,231.633,463.23,694.826
1,pro,axc,1,130518,pro_axc_run1_130518,Ang,1600,A,8,white,center,1,,239,1,1,0,1,,1,831709,836508,0,831948,208288,64,623.421,623.66,628.22,-208.288,28.415,260.029,491.625,231.633,463.23,694.826
1,pro,axc,1,130518,pro_axc_run1_130518,BY,2800,D,C,white,center,1,1,319,1,1,437,1,1,1,838908,843707,844144,839227,208288,65,630.62,630.939,635.419,635.856,28.415,260.029,491.625,231.633,463.23,694.826
1,pro,axc,1,130518,pro_axc_run1_130518,AX,4000,A,X,white,center,1,2,534,1,1,387,1,2,1,847307,852106,852493,847841,208288,66,639.019,639.553,643.818,644.205,28.415,260.029,491.625,231.633,463.23,694.826
1,pro,axc,1,130518,pro_axc_run1_130518,BY,1600,C,N,white,center,1,1,327,1,1,327,1,1,1,856905,861704,862031,857232,208288,67,648.617,648.944,653.416,653.743,28.415,260.029,491.625,231.633,463.23,694.826
1,pro,axc,1,130518,pro_axc_run1_130518,BX,2800,T,X,white,center,1,1,419,1,1,304,1,1,1,864104,868903,869207,864523,208288,68,655.816,656.235,660.615,660.919,28.415,260.029,491.625,231.633,463.23,694.826
1,pro,axc,1,130518,pro_axc_run1_130518,AX,1600,A,X,white,center,1,2,339,1,1,372,1,2,1,872503,877302,877674,872842,208288,69,664.215,664.554,669.014,669.386,28.415,260.029,491.625,231.633,463.23,694.826
1,pro,axc,1,130518,pro_axc_run1_130518,AX,2800,A,X,white,center,1,2,339,1,1,276,1,2,1,879701,884501,884777,880040,208288,70,671.413,671.752,676.213,676.489,28.415,260.029,491.625,231.633,463.23,694.826
1,pro,axc,1,130518,pro_axc_run1_130518,AY,1600,A,U,white,center,1,1,305,1,1,650,1,1,1,888100,892916,893566,888405,208288,71,679.812,680.117,684.628,685.278,28.415,260.029,491.625,231.633,463.23,694.826
1,pro,axc,1,130518,pro_axc_run1_130518,AY,2800,A,M,white,center,1,1,302,1,1,284,0,2,0,895316,900115,900399,895618,208288,72,687.028,687.33,691.827,692.111,28.415,260.029,491.625,231.633,463.23,694.826
1,pro,axc,2,130518,pro_axc_run2_130518,Bng,2800,T,9,white,center,1,,421,1,1,0,1,,1,78735,83534,0,79156,48130,1,30.605,31.026,35.404,-48.13,28.405,260.002,491.615,231.623,463.22,694.816
1,pro,axc,2,130518,pro_axc_run2_130518,BY,4000,M,F,white,center,1,1,298,1,1,375,1,1,1,87134,91933,92308,87432,48130,2,39.004,39.302,43.803,44.178,28.405,260.002,491.615,231.623,463.22,694.816
1,pro,axc,2,130518,pro_axc_run2_130518,BY,1600,T,N,white,center,1,1,409,1,1,333,1,1,1,96732,101531,101864,97141,48130,3,48.602,49.011,53.401,53.734,28.405,260.002,491.615,231.623,463.22,694.816
1,pro,axc,2,130518,pro_axc_run2_130518,BY,1600,C,D,white,center,1,1,363,1,1,438,1,1,1,103931,108730,109168,104294,48130,4,55.801,56.164,60.6,61.038,28.405,260.002,491.615,231.623,463.22,694.816
1,pro,axc,2,130518,pro_axc_run2_130518,Ang,1600,A,5,white,center,1,,303,1,1,0,1,,1,111130,115946,0,111433,48130,5,63,63.303,67.816,-48.13,28.405,260.002,491.615,231.623,463.22,694.816
1,pro,axc,2,130518,pro_axc_run2_130518,AX,4000,A,X,white,center,1,2,216,1,1,306,1,2,1,118345,123144,123450,118561,48130,6,70.215,70.431,75.014,75.32,28.405,260.002,491.615,231.623,463.22,694.816
1,pro,axc,2,130518,pro_axc_run2_130518,AX,2800,A,X,white,center,1,2,272,1,1,315,1,2,1,127944,132743,133058,128216,48130,7,79.814,80.086,84.613,84.928,28.405,260.002,491.615,231.623,463.22,694.816
1,pro,axc,2,130518,pro_axc_run2_130518,AX,1600,A,X,white,center,1,2,304,1,1,313,1,2,1,136342,141142,141455,136646,48130,8,88.212,88.516,93.012,93.325,28.405,260.002,491.615,231.623,463.22,694.816
1,pro,axc,2,130518,pro_axc_run2_130518,AX,2800,A,X,white,center,1,2,272,1,1,328,1,2,1,143541,148340,148668,143813,48130,9,95.411,95.683,100.21,100.538,28.405,260.002,491.615,231.623,463.22,694.816
1,pro,axc,2,130518,pro_axc_run2_130518,AX,4000,A,X,white,center,1,2,279,1,1,341,1,2,1,151940,156739,157080,152219,48130,10,103.81,104.089,108.609,108.95,28.405,260.002,491.615,231.623,463.22,694.816
1,pro,axc,2,130518,pro_axc_run2_130518,BX,2800,M,X,white,center,1,1,511,1,1,427,1,1,1,161538,166338,166765,162049,48130,11,113.408,113.919,118.208,118.635,28.405,260.002,491.615,231.623,463.22,694.816
1,pro,axc,2,130518,pro_axc_run2_130518,AX,4000,A,X,white,center,1,2,350,1,1,331,1,2,1,169937,174736,175067,170287,48130,12,121.807,122.157,126.606,126.937,28.405,260.002,491.615,231.623,463.22,694.816
1,pro,axc,2,130518,pro_axc_run2_130518,AX,2800,A,X,white,center,1,2,355,1,1,322,1,2,1,179536,184335,184657,179891,48130,13,131.406,131.761,136.205,136.527,28.405,260.002,491.615,231.623,463.22,694.816
1,pro,axc,2,130518,pro_axc_run2_130518,Ang,1600,A,9,white,center,1,,375,1,1,0,1,,1,187934,192733,0,188309,48130,14,139.804,140.179,144.603,-48.13,28.405,260.002,491.615,231.623,463.22,694.816
1,pro,axc,2,130518,pro_axc_run2_130518,AX,1600,A,X,white,center,1,2,442,1,1,438,1,2,1,195133,199932,200370,195575,48130,15,147.003,147.445,151.802,152.24,28.405,260.002,491.615,231.623,463.22,694.816
1,pro,axc,2,130518,pro_axc_run2_130518,AY,4000,A,N,white,center,1,1,346,1,1,514,1,1,1,202332,207131,207645,202678,48130,16,154.202,154.548,159.001,159.515,28.405,260.002,491.615,231.623,463.22,694.816
1,pro,axc,2,130518,pro_axc_run2_130518,Bng,4000,N,5,white,center,1,,434,1,1,0,1,,1,211930,216730,0,212364,48130,17,163.8,164.234,168.6,-48.13,28.405,260.002,491.615,231.623,463.22,694.816
1,pro,axc,2,130518,pro_axc_run2_130518,BX,1600,U,X,white,center,1,1,504,1,1,349,1,1,1,221546,226345,226694,222050,48130,18,173.416,173.92,178.215,178.564,28.405,260.002,491.615,231.623,463.22,694.816
1,pro,axc,2,130518,pro_axc_run2_130518,BY,4000,H,T,white,center,1,1,346,1,1,358,1,1,1,228744,233544,233902,229090,48130,19,180.614,180.96,185.414,185.772,28.405,260.002,491.615,231.623,463.22,694.816
1,pro,axc,2,130518,pro_axc_run2_130518,BY,1600,P,H,white,center,1,1,504,1,1,356,1,1,1,238343,243142,243498,238847,48130,20,190.213,190.717,195.012,195.368,28.405,260.002,491.615,231.623,463.22,694.816
1,pro,axc,2,130518,pro_axc_run2_130518,AY,4000,A,T,white,center,1,1,533,1,1,215,0,2,0,245542,250341,250556,246075,48130,21,197.412,197.945,202.211,202.426,28.405,260.002,491.615,231.623,463.22,694.816
1,pro,axc,2,130518,pro_axc_run2_130518,BY,2800,H,U,white,center,1,1,471,1,1,463,1,1,1,255140,259939,260402,255611,48130,22,207.01,207.481,211.809,212.272,28.405,260.002,491.615,231.623,463.22,694.816
1,pro,axc,2,130518,pro_axc_run2_130518,BY,2800,P,M,white,center,1,1,378,1,1,341,1,1,1,263539,268338,268679,263917,48130,23,215.409,215.787,220.208,220.549,28.405,260.002,491.615,231.623,463.22,694.816
1,pro,axc,2,130518,pro_axc_run2_130518,BY,2800,U,D,white,center,1,1,323,1,1,348,1,1,1,271938,276737,277085,272261,48130,24,223.808,224.131,228.607,228.955,28.405,260.002,491.615,231.623,463.22,694.816
1,pro,axc,2,130518,pro_axc_run2_130518,BX,2800,P,X,white,center,1,1,394,1,1,524,1,1,1,310331,315131,315655,310725,48130,25,262.201,262.595,267.001,267.525,28.405,260.002,491.615,231.623,463.22,694.816
1,pro,axc,2,130518,pro_axc_run2_130518,AX,4000,A,X,white,center,1,2,309,1,1,327,1,2,1,318730,323546,323873,319039,48130,26,270.6,270.909,275.416,275.743,28.405,260.002,491.615,231.623,463.22,694.816
1,pro,axc,2,130518,pro_axc_run2_130518,BY,2800,M,P,white,center,1,1,371,1,1,459,1,1,1,328345,333144,333603,328716,48130,27,280.215,280.586,285.014,285.473,28.405,260.002,491.615,231.623,463.22,694.816
1,pro,axc,2,130518,pro_axc_run2_130518,AX,4000,A,X,white,center,1,2,293,1,1,320,1,2,1,336744,341543,341863,337037,48130,28,288.614,288.907,293.413,293.733,28.405,260.002,491.615,231.623,463.22,694.816
1,pro,axc,2,130518,pro_axc_run2_130518,BX,2800,C,X,white,center,1,1,367,1,1,422,1,1,1,346342,351142,351564,346709,48130,29,298.212,298.579,303.012,303.434,28.405,260.002,491.615,231.623,463.22,694.816
1,pro,axc,2,130518,pro_axc_run2_130518,BY,1600,N,U,white,center,1,1,316,1,1,302,1,1,1,354741,359540,359842,355057,48130,30,306.611,306.927,311.41,311.712,28.405,260.002,491.615,231.623,463.22,694.816
1,pro,axc,2,130518,pro_axc_run2_130518,Ang,1600,A,1,white,center,1,,375,1,1,0,1,,1,361940,366739,0,362315,48130,31,313.81,314.185,318.609,-48.13,28.405,260.002,491.615,231.623,463.22,694.816
1,pro,axc,2,130518,pro_axc_run2_130518,BY,2800,C,M,white,center,1,1,311,1,1,270,1,1,1,369139,373938,374208,369450,48130,32,321.009,321.32,325.808,326.078,28.405,260.002,491.615,231.623,463.22,694.816
1,pro,axc,2,130518,pro_axc_run2_130518,AX,1600,A,X,white,center,1,2,241,1,1,406,1,2,1,377537,382337,382743,377778,48130,33,329.407,329.648,334.207,334.613,28.405,260.002,491.615,231.623,463.22,694.816
1,pro,axc,2,130518,pro_axc_run2_130518,BY,4000,F,C,white,center,1,1,270,1,1,387,1,1,1,384736,389536,389923,385006,48130,34,336.606,336.876,341.406,341.793,28.405,260.002,491.615,231.623,463.22,694.816
1,pro,axc,2,130518,pro_axc_run2_130518,BY,4000,T,M,white,center,1,1,283,1,1,287,1,1,1,394335,399134,399421,394618,48130,35,346.205,346.488,351.004,351.291,28.405,260.002,491.615,231.623,463.22,694.816
1,pro,axc,2,130518,pro_axc_run2_130518,AX,1600,A,X,white,center,1,2,428,1,1,381,1,2,1,403933,408733,409114,404361,48130,36,355.803,356.231,360.603,360.984,28.405,260.002,491.615,231.623,463.22,694.816
1,pro,axc,2,130518,pro_axc_run2_130518,AX,2800,A,X,white,center,1,2,298,1,1,307,1,2,1,411132,415931,416238,411430,48130,37,363.002,363.3,367.801,368.108,28.405,260.002,491.615,231.623,463.22,694.816
1,pro,axc,2,130518,pro_axc_run2_130518,BY,2800,U,P,white,center,1,1,440,1,1,357,1,1,1,419531,424330,424687,419971,48130,38,371.401,371.841,376.2,376.557,28.405,260.002,491.615,231.623,463.22,694.816
1,pro,axc,2,130518,pro_axc_run2_130518,Bng,4000,T,6,white,center,1,,350,1,1,274,0,1,0,427946,432745,433019,428296,48130,39,379.816,380.166,384.615,384.889,28.405,260.002,491.615,231.623,463.22,694.816
1,pro,axc,2,130518,pro_axc_run2_130518,AY,1600,A,D,white,center,1,1,526,1,1,661,1,1,1,437545,442344,443005,438071,48130,40,389.415,389.941,394.214,394.875,28.405,260.002,491.615,231.623,463.22,694.816
1,pro,axc,2,130518,pro_axc_run2_130518,Bng,2800,P,4,white,center,1,,318,1,1,0,1,,1,444744,449543,0,445062,48130,41,396.614,396.932,401.413,-48.13,28.405,260.002,491.615,231.623,463.22,694.816
1,pro,axc,2,130518,pro_axc_run2_130518,BY,1600,N,P,white,center,1,1,586,1,1,375,1,1,1,453142,457941,458316,453728,48130,42,405.012,405.598,409.811,410.186,28.405,260.002,491.615,231.623,463.22,694.816
1,pro,axc,2,130518,pro_axc_run2_130518,AX,1600,A,X,white,center,1,2,354,1,1,313,1,2,1,460341,465140,465453,460695,48130,43,412.211,412.565,417.01,417.323,28.405,260.002,491.615,231.623,463.22,694.816
1,pro,axc,2,130518,pro_axc_run2_130518,AY,1600,A,H,white,center,1,1,287,1,1,528,1,1,1,467540,472339,472867,467827,48130,44,419.41,419.697,424.209,424.737,28.405,260.002,491.615,231.623,463.22,694.816
1,pro,axc,2,130518,pro_axc_run2_130518,AX,4000,A,X,white,center,1,2,227,1,1,461,1,2,1,474739,479538,479999,474966,48130,45,426.609,426.836,431.408,431.869,28.405,260.002,491.615,231.623,463.22,694.816
1,pro,axc,2,130518,pro_axc_run2_130518,AX,4000,A,X,white,center,1,2,523,1,1,562,1,2,1,484337,489136,489698,484860,48130,46,436.207,436.73,441.006,441.568,28.405,260.002,491.615,231.623,463.22,694.816
1,pro,axc,2,130518,pro_axc_run2_130518,BY,4000,F,M,white,center,1,1,505,1,1,516,1,1,1,493936,498735,499251,494441,48130,47,445.806,446.311,450.605,451.121,28.405,260.002,491.615,231.623,463.22,694.816
1,pro,axc,2,130518,pro_axc_run2_130518,Ang,2800,A,3,white,center,1,,496,1,1,0,1,,1,503534,508333,0,504030,48130,48,455.404,455.9,460.203,-48.13,28.405,260.002,491.615,231.623,463.22,694.816
1,pro,axc,2,130518,pro_axc_run2_130518,Bng,1600,P,9,white,center,1,,579,1,1,0,1,,1,541945,546744,0,542524,48130,49,493.815,494.394,498.614,-48.13,28.405,260.002,491.615,231.623,463.22,694.816
1,pro,axc,2,130518,pro_axc_run2_130518,BX,4000,F,X,white,center,1,1,469,1,1,654,1,1,1,549144,553943,554597,549613,48130,50,501.014,501.483,505.813,506.467,28.405,260.002,491.615,231.623,463.22,694.816
1,pro,axc,2,130518,pro_axc_run2_130518,AX,2800,A,X,white,center,1,2,600,1,1,387,1,2,1,558742,563541,563928,559342,48130,51,510.612,511.212,515.411,515.798,28.405,260.002,491.615,231.623,463.22,694.816
1,pro,axc,2,130518,pro_axc_run2_130518,AY,4000,A,T,white,center,1,1,297,1,1,608,1,1,1,567141,571940,572548,567438,48130,52,519.011,519.308,523.81,524.418,28.405,260.002,491.615,231.623,463.22,694.816
1,pro,axc,2,130518,pro_axc_run2_130518,AX,4000,A,X,white,center,1,2,459,1,1,492,1,2,1,576739,581538,582030,577198,48130,53,528.609,529.068,533.408,533.9,28.405,260.002,491.615,231.623,463.22,694.816
1,pro,axc,2,130518,pro_axc_run2_130518,AY,4000,A,H,white,center,1,1,495,1,1,597,1,1,1,586338,591137,591734,586833,48130,54,538.208,538.703,543.007,543.604,28.405,260.002,491.615,231.623,463.22,694.816
1,pro,axc,2,130518,pro_axc_run2_130518,BY,2800,D,T,white,center,1,1,315,1,1,521,1,1,1,595936,600735,601256,596251,48130,55,547.806,548.121,552.605,553.126,28.405,260.002,491.615,231.623,463.22,694.816
1,pro,axc,2,130518,pro_axc_run2_130518,AX,1600,A,X,white,center,1,2,539,1,1,282,1,2,1,604335,609134,609416,604874,48130,56,556.205,556.744,561.004,561.286,28.405,260.002,491.615,231.623,463.22,694.816
1,pro,axc,2,130518,pro_axc_run2_130518,Ang,1600,A,7,white,center,1,,279,1,1,0,1,,1,611534,616333,0,611813,48130,57,563.404,563.683,568.203,-48.13,28.405,260.002,491.615,231.623,463.22,694.816
1,pro,axc,2,130518,pro_axc_run2_130518,BY,2800,D,N,white,center,1,1,514,1,1,522,1,1,1,618733,623532,624054,619247,48130,58,570.603,571.117,575.402,575.924,28.405,260.002,491.615,231.623,463.22,694.816
1,pro,axc,2,130518,pro_axc_run2_130518,AX,1600,A,X,white,center,1,2,0,0,,253,1,2,0,627131,631930,632183,0,48130,59,579.001,-48.13,583.8,584.053,28.405,260.002,491.615,231.623,463.22,694.816
1,pro,axc,2,130518,pro_axc_run2_130518,BY,2800,P,M,white,center,1,1,306,1,1,329,1,1,1,634330,639146,639475,634636,48130,60,586.2,586.506,591.016,591.345,28.405,260.002,491.615,231.623,463.22,694.816
1,pro,axc,2,130518,pro_axc_run2_130518,BY,1600,T,N,white,center,1,1,306,1,1,415,1,1,1,642745,647545,647960,643051,48130,61,594.615,594.921,599.415,599.83,28.405,260.002,491.615,231.623,463.22,694.816
1,pro,axc,2,130518,pro_axc_run2_130518,BY,1600,H,T,white,center,1,1,331,1,1,392,1,1,1,649944,654744,655136,650275,48130,62,601.814,602.145,606.614,607.006,28.405,260.002,491.615,231.623,463.22,694.816
1,pro,axc,2,130518,pro_axc_run2_130518,AX,2800,A,X,white,center,1,2,451,1,1,396,1,2,1,657143,661942,662338,657594,48130,63,609.013,609.464,613.812,614.208,28.405,260.002,491.615,231.623,463.22,694.816
1,pro,axc,2,130518,pro_axc_run2_130518,Bng,2800,C,8,white,center,1,,0,0,,0,1,,0,665542,670341,0,0,48130,64,617.412,-48.13,622.211,-48.13,28.405,260.002,491.615,231.623,463.22,694.816
1,pro,axc,2,130518,pro_axc_run2_130518,BY,4000,D,T,white,center,1,1,531,1,1,729,1,1,1,673940,678740,679469,674471,48130,65,625.81,626.341,630.61,631.339,28.405,260.002,491.615,231.623,463.22,694.816
1,pro,axc,2,130518,pro_axc_run2_130518,BY,4000,U,D,white,center,1,1,561,1,1,382,1,1,1,683539,688338,688720,684100,48130,66,635.409,635.97,640.208,640.59,28.405,260.002,491.615,231.623,463.22,694.816
1,pro,axc,2,130518,pro_axc_run2_130518,Ang,4000,A,3,white,center,1,,568,1,1,0,1,,1,693137,697937,0,693705,48130,67,645.007,645.575,649.807,-48.13,28.405,260.002,491.615,231.623,463.22,694.816
1,pro,axc,2,130518,pro_axc_run2_130518,BY,2800,M,P,white,center,1,1,457,1,1,420,1,1,1,702736,707535,707955,703193,48130,68,654.606,655.063,659.405,659.825,28.405,260.002,491.615,231.623,463.22,694.816
1,pro,axc,2,130518,pro_axc_run2_130518,AX,1600,A,X,white,center,1,2,380,1,1,363,1,2,1,711135,715934,716297,711515,48130,69,663.005,663.385,667.804,668.167,28.405,260.002,491.615,231.623,463.22,694.816
1,pro,axc,2,130518,pro_axc_run2_130518,AX,1600,A,X,white,center,1,2,0,0,,956,0,1,0,718333,723133,724089,0,48130,70,670.203,-48.13,675.003,675.959,28.405,260.002,491.615,231.623,463.22,694.816
1,pro,axc,2,130518,pro_axc_run2_130518,AX,2800,A,X,white,center,1,2,902,1,1,368,1,2,1,725532,730332,730700,726434,48130,71,677.402,678.304,682.202,682.57,28.405,260.002,491.615,231.623,463.22,694.816
1,pro,axc,2,130518,pro_axc_run2_130518,BX,4000,M,X,white,center,1,1,393,1,1,286,1,1,1,733931,738730,739016,734324,48130,72,685.801,686.194,690.6,690.886,28.405,260.002,491.615,231.623,463.22,694.816
1,rea,axc,1,130518,rea_axc_run1_130518,BX,4000,U,X,red,Below,1,1,739,1,1,1023,1,1,1,153950,158749,159772,154689,123330,1,30.62,31.359,35.419,36.442,28.42,260.017,491.613,231.621,463.217,694.83
1,rea,axc,1,130518,rea_axc_run1_130518,BX,4000,F,X,red,Below,1,1,511,1,1,530,1,1,1,163548,168348,168878,164059,123330,2,40.218,40.729,45.018,45.548,28.42,260.017,491.613,231.621,463.217,694.83
1,rea,axc,1,130518,rea_axc_run1_130518,Ang,1600,A,8,red,Below,1,,455,1,1,0,1,,1,173147,177946,0,173602,123330,3,49.817,50.272,54.616,-123.33,28.42,260.017,491.613,231.621,463.217,694.83
1,rea,axc,1,130518,rea_axc_run1_130518,AX,2800,A,X,white,Above,1,2,344,1,1,369,1,2,1,180346,185145,185514,180690,123330,4,57.016,57.36,61.815,62.184,28.42,260.017,491.613,231.621,463.217,694.83
1,rea,axc,1,130518,rea_axc_run1_130518,AX,1600,A,X,white,Above,1,2,496,1,1,320,1,2,1,188744,193544,193864,189240,123330,5,65.414,65.91,70.214,70.534,28.42,260.017,491.613,231.621,463.217,694.83
1,rea,axc,1,130518,rea_axc_run1_130518,AX,1600,A,X,white,Above,1,2,399,1,1,344,1,2,1,195943,200742,201086,196342,123330,6,72.613,73.012,77.412,77.756,28.42,260.017,491.613,231.621,463.217,694.83
1,rea,axc,1,130518,rea_axc_run1_130518,BY,2800,F,M,white,Above,1,1,516,1,1,764,1,1,1,203142,207941,208705,203658,123330,7,79.812,80.328,84.611,85.375,28.42,260.017,491.613,231.621,463.217,694.83
1,rea,axc,1,130518,rea_axc_run1_130518,Ang,4000,A,4,red,Below,1,,329,1,1,0,1,,1,211541,216340,0,211870,123330,8,88.211,88.54,93.01,-123.33,28.42,260.017,491.613,231.621,463.217,694.83
1,rea,axc,1,130518,rea_axc_run1_130518,AX,2800,A,X,white,Above,1,2,422,1,1,289,1,2,1,221139,225938,226227,221561,123330,9,97.809,98.231,102.608,102.897,28.42,260.017,491.613,231.621,463.217,694.83
1,rea,axc,1,130518,rea_axc_run1_130518,Bng,4000,H,1,red,Below,1,,470,1,1,0,1,,1,229538,234337,0,230008,123330,10,106.208,106.678,111.007,-123.33,28.42,260.017,491.613,231.621,463.217,694.83
1,rea,axc,1,130518,rea_axc_run1_130518,BY,1600,U,D,white,Above,1,1,387,1,1,486,1,1,1,239136,243936,244422,239523,123330,11,115.806,116.193,120.606,121.092,28.42,260.017,491.613,231.621,463.217,694.83
1,rea,axc,1,130518,rea_axc_run1_130518,AX,2800,A,X,white,Above,1,2,700,1,1,361,1,2,1,246352,251151,251512,247052,123330,12,123.022,123.722,127.821,128.182,28.42,260.017,491.613,231.621,463.217,694.83
1,rea,axc,1,130518,rea_axc_run1_130518,BY,4000,H,T,white,Above,1,1,788,1,1,536,1,1,1,254750,259550,260086,255538,123330,13,131.42,132.208,136.22,136.756,28.42,260.017,491.613,231.621,463.217,694.83
1,rea,axc,1,130518,rea_axc_run1_130518,AX,2800,A,X,white,Above,1,2,481,1,1,391,1,2,1,264349,269148,269539,264830,123330,14,141.019,141.5,145.818,146.209,28.42,260.017,491.613,231.621,463.217,694.83
1,rea,axc,1,130518,rea_axc_run1_130518,AY,4000,A,D,red,Below,1,1,381,1,1,569,1,1,1,272748,277547,278116,273129,123330,15,149.418,149.799,154.217,154.786,28.42,260.017,491.613,231.621,463.217,694.83
1,rea,axc,1,130518,rea_axc_run1_130518,AX,4000,A,X,white,Above,1,2,641,1,1,383,1,2,1,282346,287145,287528,282987,123330,16,159.016,159.657,163.815,164.198,28.42,260.017,491.613,231.621,463.217,694.83
1,rea,axc,1,130518,rea_axc_run1_130518,BY,1600,C,M,white,Above,1,1,391,1,1,611,1,1,1,291945,296744,297355,292336,123330,17,168.615,169.006,173.414,174.025,28.42,260.017,491.613,231.621,463.217,694.83
1,rea,axc,1,130518,rea_axc_run1_130518,AX,1600,A,X,white,Above,1,2,435,1,1,477,1,2,1,299143,303943,304420,299578,123330,18,175.813,176.248,180.613,181.09,28.42,260.017,491.613,231.621,463.217,694.83
1,rea,axc,1,130518,rea_axc_run1_130518,BY,2800,T,N,white,Above,1,1,518,1,1,654,1,1,1,306342,311141,311795,306860,123330,19,183.012,183.53,187.811,188.465,28.42,260.017,491.613,231.621,463.217,694.83
1,rea,axc,1,130518,rea_axc_run1_130518,BY,2800,P,M,white,Above,1,1,391,1,1,432,1,1,1,314741,319540,319972,315132,123330,20,191.411,191.802,196.21,196.642,28.42,260.017,491.613,231.621,463.217,694.83
1,rea,axc,1,130518,rea_axc_run1_130518,Bng,1600,H,7,red,Below,1,,386,1,1,0,1,,1,323140,327939,0,323526,123330,21,199.81,200.196,204.609,-123.33,28.42,260.017,491.613,231.621,463.217,694.83
1,rea,axc,1,130518,rea_axc_run1_130518,AY,2800,A,T,red,Below,1,1,402,1,1,528,1,1,1,330338,335138,335666,330740,123330,22,207.008,207.41,211.808,212.336,28.42,260.017,491.613,231.621,463.217,694.83
1,rea,axc,1,130518,rea_axc_run1_130518,BY,1600,H,U,white,Above,1,1,448,1,1,426,1,1,1,338737,343536,343962,339185,123330,23,215.407,215.855,220.206,220.632,28.42,260.017,491.613,231.621,463.217,694.83
1,rea,axc,1,130518,rea_axc_run1_130518,BY,4000,M,P,white,Above,1,1,0,0,,403,1,1,0,345936,350752,351155,0,123330,24,222.606,-123.33,227.422,227.825,28.42,260.017,491.613,231.621,463.217,694.83
1,rea,axc,1,130518,rea_axc_run1_130518,Ang,1600,A,6,red,Below,1,,500,1,1,0,1,,1,385546,390345,0,386046,123330,25,262.216,262.716,267.015,-123.33,28.42,260.017,491.613,231.621,463.217,694.83
1,rea,axc,1,130518,rea_axc_run1_130518,BY,4000,U,P,white,Above,1,1,456,1,1,424,1,1,1,392745,397544,397968,393201,123330,26,269.415,269.871,274.214,274.638,28.42,260.017,491.613,231.621,463.217,694.83
1,rea,axc,1,130518,rea_axc_run1_130518,BY,1600,N,U,white,Above,1,1,567,1,1,541,1,1,1,402343,407143,407684,402910,123330,27,279.013,279.58,283.813,284.354,28.42,260.017,491.613,231.621,463.217,694.83
1,rea,axc,1,130518,rea_axc_run1_130518,BY,2800,M,F,white,Above,1,1,473,1,1,512,1,1,1,409542,414342,414854,410015,123330,28,286.212,286.685,291.012,291.524,28.42,260.017,491.613,231.621,463.217,694.83
1,rea,axc,1,130518,rea_axc_run1_130518,Bng,2800,P,2,red,Below,1,,0,0,,0,1,,0,417941,422740,0,0,123330,29,294.611,-123.33,299.41,-123.33,28.42,260.017,491.613,231.621,463.217,694.83
1,rea,axc,1,130518,rea_axc_run1_130518,BY,1600,D,N,white,Above,1,1,451,1,1,440,1,1,1,426340,431139,431579,426791,123330,30,303.01,303.461,307.809,308.249,28.42,260.017,491.613,231.621,463.217,694.83
1,rea,axc,1,130518,rea_axc_run1_130518,AX,4000,A,X,white,Above,1,2,504,1,1,380,1,2,1,433538,438338,438718,434042,123330,31,310.208,310.712,315.008,315.388,28.42,260.017,491.613,231.621,463.217,694.83
1,rea,axc,1,130518,rea_axc_run1_130518,BY,2800,D,T,white,Above,1,1,410,1,1,416,1,1,1,443137,447936,448352,443547,123330,32,319.807,320.217,324.606,325.022,28.42,260.017,491.613,231.621,463.217,694.83
1,rea,axc,1,130518,rea_axc_run1_130518,AY,4000,A,N,red,Below,1,1,479,1,1,567,1,1,1,451536,456351,456918,452015,123330,33,328.206,328.685,333.021,333.588,28.42,260.017,491.613,231.621,463.217,694.83
1,rea,axc,1,130518,rea_axc_run1_130518,AX,2800,A,X,white,Above,1,2,559,1,1,435,1,2,1,461151,465950,466385,461710,123330,34,337.821,338.38,342.62,343.055,28.42,260.017,491.613,231.621,463.217,694.83
1,rea,axc,1,130518,rea_axc_run1_130518,BY,4000,T,M,white,Above,1,1,405,1,1,415,1,1,1,469549,474349,474764,469954,123330,35,346.219,346.624,351.019,351.434,28.42,260.017,491.613,231.621,463.217,694.83
1,rea,axc,1,130518,rea_axc_run1_130518,AX,1600,A,X,white,Above,1,2,621,1,1,419,1,2,1,479148,483947,484366,479769,123330,36,355.818,356.439,360.617,361.036,28.42,260.017,491.613,231.621,463.217,694.83
1,rea,axc,1,130518,rea_axc_run1_130518,AX,4000,A,X,white,Above,1,2,621,1,1,275,1,2,1,486347,491146,491421,486968,123330,37,363.017,363.638,367.816,368.091,28.42,260.017,491.613,231.621,463.217,694.83
1,rea,axc,1,130518,rea_axc_run1_130518,AY,4000,A,H,red,Below,1,1,418,1,1,477,1,1,1,495945,500744,501221,496363,123330,38,372.615,373.033,377.414,377.891,28.42,260.017,491.613,231.621,463.217,694.83
1,rea,axc,1,130518,rea_axc_run1_130518,Bng,2800,T,8,red,Below,1,,487,1,1,0,1,,1,505544,510343,0,506031,123330,39,382.214,382.701,387.013,-123.33,28.42,260.017,491.613,231.621,463.217,694.83
1,rea,axc,1,130518,rea_axc_run1_130518,AX,1600,A,X,white,Above,1,2,387,1,1,368,1,2,1,513942,518741,519109,514329,123330,40,390.612,390.999,395.411,395.779,28.42,260.017,491.613,231.621,463.217,694.83
1,rea,axc,1,130518,rea_axc_run1_130518,BY,1600,C,D,white,Above,1,1,641,1,1,278,1,1,1,521141,525940,526218,521782,123330,41,397.811,398.452,402.61,402.888,28.42,260.017,491.613,231.621,463.217,694.83
1,rea,axc,1,130518,rea_axc_run1_130518,AX,1600,A,X,white,Above,1,2,749,1,1,499,1,2,1,528340,533139,533638,529089,123330,42,405.01,405.759,409.809,410.308,28.42,260.017,491.613,231.621,463.217,694.83
1,rea,axc,1,130518,rea_axc_run1_130518,AX,2800,A,X,white,Above,1,2,376,1,1,287,1,2,1,535539,540338,540625,535915,123330,43,412.209,412.585,417.008,417.295,28.42,260.017,491.613,231.621,463.217,694.83
1,rea,axc,1,130518,rea_axc_run1_130518,BY,2800,N,P,white,Above,1,1,408,1,1,424,1,1,1,543937,548737,549161,544345,123330,44,420.607,421.015,425.407,425.831,28.42,260.017,491.613,231.621,463.217,694.83
1,rea,axc,1,130518,rea_axc_run1_130518,Ang,2800,A,2,red,Below,1,,0,0,,0,1,,0,552336,557152,0,0,123330,45,429.006,-123.33,433.822,-123.33,28.42,260.017,491.613,231.621,463.217,694.83
1,rea,axc,1,130518,rea_axc_run1_130518,AX,1600,A,X,white,Above,1,2,475,1,1,495,1,2,1,560751,565551,566046,561226,123330,46,437.421,437.896,442.221,442.716,28.42,260.017,491.613,231.621,463.217,694.83
1,rea,axc,1,130518,rea_axc_run1_130518,BX,4000,M,X,red,Below,1,1,322,1,1,466,1,1,1,567950,572750,573216,568272,123330,47,444.62,444.942,449.42,449.886,28.42,260.017,491.613,231.621,463.217,694.83
1,rea,axc,1,130518,rea_axc_run1_130518,BX,4000,P,X,red,Below,1,1,372,1,1,406,1,1,1,577549,582348,582754,577921,123330,48,454.219,454.591,459.018,459.424,28.42,260.017,491.613,231.621,463.217,694.83
1,rea,axc,1,130518,rea_axc_run1_130518,BX,4000,C,X,red,Below,1,1,519,1,1,412,1,1,1,617142,621942,622354,617661,123330,49,493.812,494.331,498.612,499.024,28.42,260.017,491.613,231.621,463.217,694.83
1,rea,axc,1,130518,rea_axc_run1_130518,AX,2800,A,X,white,Above,1,2,526,1,1,290,1,2,1,626741,631540,631830,627267,123330,50,503.411,503.937,508.21,508.5,28.42,260.017,491.613,231.621,463.217,694.83
1,rea,axc,1,130518,rea_axc_run1_130518,BY,2800,P,H,white,Above,1,1,390,1,1,508,1,1,1,635139,639939,640447,635529,123330,51,511.809,512.199,516.609,517.117,28.42,260.017,491.613,231.621,463.217,694.83
1,rea,axc,1,130518,rea_axc_run1_130518,AX,4000,A,X,white,Above,1,2,613,1,1,348,1,2,1,643538,648337,648685,644151,123330,52,520.208,520.821,525.007,525.355,28.42,260.017,491.613,231.621,463.217,694.83
1,rea,axc,1,130518,rea_axc_run1_130518,Ang,1600,A,4,red,Below,1,,813,1,1,0,1,,1,653137,657936,0,653950,123330,53,529.807,530.62,534.606,-123.33,28.42,260.017,491.613,231.621,463.217,694.83
1,rea,axc,1,130518,rea_axc_run1_130518,AY,1600,A,T,red,Below,1,1,510,1,1,588,1,1,1,660352,665151,665739,660862,123330,54,537.022,537.532,541.821,542.409,28.42,260.017,491.613,231.621,463.217,694.83
1,rea,axc,1,130518,rea_axc_run1_130518,BY,2800,F,C,white,Above,1,1,392,1,1,411,1,1,1,667551,672350,672761,667943,123330,55,544.221,544.613,549.02,549.431,28.42,260.017,491.613,231.621,463.217,694.83
1,rea,axc,1,130518,rea_axc_run1_130518,BY,4000,D,N,white,Above,1,1,699,1,1,529,1,1,1,675950,680749,681278,676649,123330,56,552.62,553.319,557.419,557.948,28.42,260.017,491.613,231.621,463.217,694.83
1,rea,axc,1,130518,rea_axc_run1_130518,AX,1600,A,X,white,Above,1,2,397,1,1,399,1,2,1,685548,690347,690746,685945,123330,57,562.218,562.615,567.017,567.416,28.42,260.017,491.613,231.621,463.217,694.83
1,rea,axc,1,130518,rea_axc_run1_130518,AX,1600,A,X,white,Above,1,2,464,1,1,412,1,2,1,692747,697546,697958,693211,123330,58,569.417,569.881,574.216,574.628,28.42,260.017,491.613,231.621,463.217,694.83
1,rea,axc,1,130518,rea_axc_run1_130518,Bng,4000,M,1,red,Below,1,,425,1,1,865,0,1,0,699946,704745,705610,700371,123330,59,576.616,577.041,581.415,582.28,28.42,260.017,491.613,231.621,463.217,694.83
1,rea,axc,1,130518,rea_axc_run1_130518,BY,2800,T,M,white,Above,1,1,402,1,1,515,1,1,1,709544,714343,714858,709946,123330,60,586.214,586.616,591.013,591.528,28.42,260.017,491.613,231.621,463.217,694.83
1,rea,axc,1,130518,rea_axc_run1_130518,BY,4000,T,N,white,Above,1,1,424,1,1,446,1,1,1,717943,722742,723188,718367,123330,61,594.613,595.037,599.412,599.858,28.42,260.017,491.613,231.621,463.217,694.83
1,rea,axc,1,130518,rea_axc_run1_130518,BY,1600,U,D,white,Above,1,1,414,1,1,552,1,1,1,727541,732341,732893,727955,123330,62,604.211,604.625,609.011,609.563,28.42,260.017,491.613,231.621,463.217,694.83
1,rea,axc,1,130518,rea_axc_run1_130518,BX,1600,P,X,red,Below,1,1,730,1,1,807,1,1,1,734740,739539,740346,735470,123330,63,611.41,612.14,616.209,617.016,28.42,260.017,491.613,231.621,463.217,694.83
1,rea,axc,1,130518,rea_axc_run1_130518,Bng,4000,U,6,red,Below,1,,730,1,1,0,1,,1,741939,746738,0,742669,123330,64,618.609,619.339,623.408,-123.33,28.42,260.017,491.613,231.621,463.217,694.83
1,rea,axc,1,130518,rea_axc_run1_130518,AX,1600,A,X,white,Above,1,2,819,1,1,305,1,2,1,751537,756337,756642,752356,123330,65,628.207,629.026,633.007,633.312,28.42,260.017,491.613,231.621,463.217,694.83
1,rea,axc,1,130518,rea_axc_run1_130518,AY,4000,A,H,red,Below,1,1,392,1,1,549,1,1,1,758736,763536,764085,759128,123330,66,635.406,635.798,640.206,640.755,28.42,260.017,491.613,231.621,463.217,694.83
1,rea,axc,1,130518,rea_axc_run1_130518,Ang,2800,A,8,red,Below,1,,631,1,1,0,1,,1,768351,773151,0,768982,123330,67,645.021,645.652,649.821,-123.33,28.42,260.017,491.613,231.621,463.217,694.83
1,rea,axc,1,130518,rea_axc_run1_130518,AX,2800,A,X,white,Above,1,2,593,1,1,432,1,2,1,776750,781549,781981,777343,123330,68,653.42,654.013,658.219,658.651,28.42,260.017,491.613,231.621,463.217,694.83
1,rea,axc,1,130518,rea_axc_run1_130518,BY,1600,M,P,white,Above,1,1,620,1,1,0,0,,0,785149,789948,0,785769,123330,69,661.819,662.439,666.618,-123.33,28.42,260.017,491.613,231.621,463.217,694.83
1,rea,axc,1,130518,rea_axc_run1_130518,BY,2800,P,M,white,Above,1,1,0,0,,485,1,1,0,792348,797147,797632,0,123330,70,669.018,-123.33,673.817,674.302,28.42,260.017,491.613,231.621,463.217,694.83
1,rea,axc,1,130518,rea_axc_run1_130518,AX,4000,A,X,white,Above,1,2,574,1,1,275,1,2,1,800746,805546,805821,801320,123330,71,677.416,677.99,682.216,682.491,28.42,260.017,491.613,231.621,463.217,694.83
1,rea,axc,1,130518,rea_axc_run1_130518,AX,2800,A,X,white,Above,1,2,444,1,1,291,1,2,1,810345,815144,815435,810789,123330,72,687.015,687.459,691.814,692.105,28.42,260.017,491.613,231.621,463.217,694.83
1,rea,axc,2,130518,rea_axc_run2_130518,Ang,2800,A,1,red,Below,1,,509,1,1,0,1,,1,64869,69668,0,65378,34255,1,30.614,31.123,35.413,-34.255,28.414,260.027,491.623,231.632,463.228,694.824
1,rea,axc,2,130518,rea_axc_run2_130518,AX,2800,A,X,white,Above,1,2,395,1,1,306,1,2,1,73268,78067,78373,73663,34255,2,39.013,39.408,43.812,44.118,28.414,260.027,491.623,231.632,463.228,694.824
1,rea,axc,2,130518,rea_axc_run2_130518,BY,4000,F,D,white,Above,1,1,645,1,1,325,1,1,1,81683,86482,86807,82328,34255,3,47.428,48.073,52.227,52.552,28.414,260.027,491.623,231.632,463.228,694.824
1,rea,axc,2,130518,rea_axc_run2_130518,AX,4000,A,X,white,Above,1,2,439,1,1,320,1,2,1,91281,96081,96401,91720,34255,4,57.026,57.465,61.826,62.146,28.414,260.027,491.623,231.632,463.228,694.824
1,rea,axc,2,130518,rea_axc_run2_130518,AX,1600,A,X,white,Above,1,2,313,1,1,264,1,2,1,100880,105679,105943,101193,34255,5,66.625,66.938,71.424,71.688,28.414,260.027,491.623,231.632,463.228,694.824
1,rea,axc,2,130518,rea_axc_run2_130518,BX,2800,N,X,red,Below,1,1,626,1,1,415,1,1,1,108079,112878,113293,108705,34255,6,73.824,74.45,78.623,79.038,28.414,260.027,491.623,231.632,463.228,694.824
1,rea,axc,2,130518,rea_axc_run2_130518,AX,1600,A,X,white,Above,1,2,472,1,1,263,1,2,1,116477,121277,121540,116949,34255,7,82.222,82.694,87.022,87.285,28.414,260.027,491.623,231.632,463.228,694.824
1,rea,axc,2,130518,rea_axc_run2_130518,AX,4000,A,X,white,Above,1,2,269,1,1,247,1,2,1,123676,128475,128722,123945,34255,8,89.421,89.69,94.22,94.467,28.414,260.027,491.623,231.632,463.228,694.824
1,rea,axc,2,130518,rea_axc_run2_130518,BX,1600,D,X,red,Below,1,1,585,1,1,392,1,1,1,133275,138074,138466,133860,34255,9,99.02,99.605,103.819,104.211,28.414,260.027,491.623,231.632,463.228,694.824
1,rea,axc,2,130518,rea_axc_run2_130518,AY,4000,A,P,red,Below,1,1,373,1,1,403,1,1,1,140474,145273,145676,140847,34255,10,106.219,106.592,111.018,111.421,28.414,260.027,491.623,231.632,463.228,694.824
1,rea,axc,2,130518,rea_axc_run2_130518,AX,2800,A,X,white,Above,1,2,404,1,1,333,1,2,1,150072,154871,155204,150476,34255,11,115.817,116.221,120.616,120.949,28.414,260.027,491.623,231.632,463.228,694.824
1,rea,axc,2,130518,rea_axc_run2_130518,AX,1600,A,X,white,Above,1,2,354,1,1,273,1,2,1,158471,163270,163543,158825,34255,12,124.216,124.57,129.015,129.288,28.414,260.027,491.623,231.632,463.228,694.824
1,rea,axc,2,130518,rea_axc_run2_130518,Bng,4000,C,8,red,Below,1,,473,1,1,0,1,,1,165669,170469,0,166142,34255,13,131.414,131.887,136.214,-34.255,28.414,260.027,491.623,231.632,463.228,694.824
1,rea,axc,2,130518,rea_axc_run2_130518,AY,2800,A,M,red,Below,1,1,420,1,1,749,1,1,1,175268,180067,180816,175688,34255,14,141.013,141.433,145.812,146.561,28.414,260.027,491.623,231.632,463.228,694.824
1,rea,axc,2,130518,rea_axc_run2_130518,BY,1600,D,C,white,Above,1,1,514,1,1,482,1,1,1,183667,188482,188964,184181,34255,15,149.412,149.926,154.227,154.709,28.414,260.027,491.623,231.632,463.228,694.824
1,rea,axc,2,130518,rea_axc_run2_130518,Bng,1600,D,2,red,Below,1,,448,1,1,0,1,,1,190882,195681,0,191330,34255,16,156.627,157.075,161.426,-34.255,28.414,260.027,491.623,231.632,463.228,694.824
1,rea,axc,2,130518,rea_axc_run2_130518,BY,2800,D,U,white,Above,1,1,714,1,1,407,1,1,1,198081,202880,203287,198795,34255,17,163.826,164.54,168.625,169.032,28.414,260.027,491.623,231.632,463.228,694.824
1,rea,axc,2,130518,rea_axc_run2_130518,BY,4000,U,F,white,Above,1,1,470,1,1,505,1,1,1,206480,211279,211784,206950,34255,18,172.225,172.695,177.024,177.529,28.414,260.027,491.623,231.632,463.228,694.824
1,rea,axc,2,130518,rea_axc_run2_130518,BY,2800,M,N,white,Above,1,1,408,1,1,406,1,1,1,216078,220877,221283,216486,34255,19,181.823,182.231,186.622,187.028,28.414,260.027,491.623,231.632,463.228,694.824
1,rea,axc,2,130518,rea_axc_run2_130518,Ang,2800,A,7,red,Below,1,,451,1,1,0,1,,1,224477,229276,0,224928,34255,20,190.222,190.673,195.021,-34.255,28.414,260.027,491.623,231.632,463.228,694.824
1,rea,axc,2,130518,rea_axc_run2_130518,BY,1600,F,H,white,Above,1,1,504,1,1,339,1,1,1,232875,237675,238014,233379,34255,21,198.62,199.124,203.42,203.759,28.414,260.027,491.623,231.632,463.228,694.824
1,rea,axc,2,130518,rea_axc_run2_130518,BY,1600,P,T,white,Above,1,1,945,1,1,279,1,1,1,240074,244873,245152,241019,34255,22,205.819,206.764,210.618,210.897,28.414,260.027,491.623,231.632,463.228,694.824
1,rea,axc,2,130518,rea_axc_run2_130518,AX,4000,A,X,white,Above,1,2,361,1,1,364,1,2,1,247273,252072,252436,247634,34255,23,213.018,213.379,217.817,218.181,28.414,260.027,491.623,231.632,463.228,694.824
1,rea,axc,2,130518,rea_axc_run2_130518,BY,4000,T,H,white,Above,1,1,398,1,1,379,1,1,1,256872,261671,262050,257270,34255,24,222.617,223.015,227.416,227.795,28.414,260.027,491.623,231.632,463.228,694.824
1,rea,axc,2,130518,rea_axc_run2_130518,Ang,4000,A,9,red,Below,1,,556,1,1,0,1,,1,296482,301281,0,297038,34255,25,262.227,262.783,267.026,-34.255,28.414,260.027,491.623,231.632,463.228,694.824
1,rea,axc,2,130518,rea_axc_run2_130518,BY,1600,C,N,white,Above,1,1,472,1,1,456,1,1,1,306080,310880,311336,306552,34255,26,271.825,272.297,276.625,277.081,28.414,260.027,491.623,231.632,463.228,694.824
1,rea,axc,2,130518,rea_axc_run2_130518,AX,4000,A,X,white,Above,1,2,574,1,1,363,1,2,1,313279,318078,318441,313853,34255,27,279.024,279.598,283.823,284.186,28.414,260.027,491.623,231.632,463.228,694.824
1,rea,axc,2,130518,rea_axc_run2_130518,Bng,2800,C,6,red,Below,1,,410,1,1,0,1,,1,322878,327677,0,323288,34255,28,288.623,289.033,293.422,-34.255,28.414,260.027,491.623,231.632,463.228,694.824
1,rea,axc,2,130518,rea_axc_run2_130518,AX,4000,A,X,white,Above,1,2,500,1,1,355,1,2,1,331276,336076,336431,331776,34255,29,297.021,297.521,301.821,302.176,28.414,260.027,491.623,231.632,463.228,694.824
1,rea,axc,2,130518,rea_axc_run2_130518,AX,2800,A,X,white,Above,1,2,431,1,1,398,1,2,1,340875,345674,346072,341306,34255,30,306.62,307.051,311.419,311.817,28.414,260.027,491.623,231.632,463.228,694.824
1,rea,axc,2,130518,rea_axc_run2_130518,AX,2800,A,X,white,Above,1,2,1003,1,1,366,1,2,1,349273,354073,354439,350276,34255,31,315.018,316.021,319.818,320.184,28.414,260.027,491.623,231.632,463.228,694.824
1,rea,axc,2,130518,rea_axc_run2_130518,BY,1600,N,H,white,Above,1,1,0,0,,468,1,1,0,357672,362471,362939,0,34255,32,323.417,-34.255,328.216,328.684,28.414,260.027,491.623,231.632,463.228,694.824
1,rea,axc,2,130518,rea_axc_run2_130518,BY,1600,P,C,white,Above,1,1,580,1,1,364,1,1,1,364871,369670,370034,365451,34255,33,330.616,331.196,335.415,335.779,28.414,260.027,491.623,231.632,463.228,694.824
1,rea,axc,2,130518,rea_axc_run2_130518,BY,1600,U,T,white,Above,1,1,323,1,1,318,1,1,1,372070,376869,377187,372393,34255,34,337.815,338.138,342.614,342.932,28.414,260.027,491.623,231.632,463.228,694.824
1,rea,axc,2,130518,rea_axc_run2_130518,AY,4000,A,F,red,Below,1,1,402,1,1,528,1,1,1,379269,384068,384596,379671,34255,35,345.014,345.416,349.813,350.341,28.414,260.027,491.623,231.632,463.228,694.824
1,rea,axc,2,130518,rea_axc_run2_130518,AX,2800,A,X,white,Above,1,2,357,1,1,316,1,2,1,388867,393683,393999,389224,34255,36,354.612,354.969,359.428,359.744,28.414,260.027,491.623,231.632,463.228,694.824
1,rea,axc,2,130518,rea_axc_run2_130518,AX,4000,A,X,white,Above,1,2,508,1,1,360,1,2,1,397282,402082,402442,397790,34255,37,363.027,363.535,367.827,368.187,28.414,260.027,491.623,231.632,463.228,694.824
1,rea,axc,2,130518,rea_axc_run2_130518,AY,2800,A,C,red,Below,1,1,561,1,1,594,1,1,1,406881,411680,412274,407442,34255,38,372.626,373.187,377.425,378.019,28.414,260.027,491.623,231.632,463.228,694.824
1,rea,axc,2,130518,rea_axc_run2_130518,AX,1600,A,X,white,Above,1,2,335,1,1,505,1,2,1,415279,420079,420584,415614,34255,39,381.024,381.359,385.824,386.329,28.414,260.027,491.623,231.632,463.228,694.824
1,rea,axc,2,130518,rea_axc_run2_130518,BY,1600,C,F,white,Above,1,1,312,1,1,384,1,1,1,422478,427278,427662,422790,34255,40,388.223,388.535,393.023,393.407,28.414,260.027,491.623,231.632,463.228,694.824
1,rea,axc,2,130518,rea_axc_run2_130518,Ang,1600,A,5,red,Below,1,,0,0,,0,1,,0,429677,434476,0,0,34255,41,395.422,-34.255,400.221,-34.255,28.414,260.027,491.623,231.632,463.228,694.824
1,rea,axc,2,130518,rea_axc_run2_130518,BY,1600,T,P,white,Above,1,1,341,1,1,428,1,1,1,436876,441675,442103,437217,34255,42,402.621,402.962,407.42,407.848,28.414,260.027,491.623,231.632,463.228,694.824
1,rea,axc,2,130518,rea_axc_run2_130518,BY,2800,H,F,white,Above,1,1,435,1,1,817,1,1,1,444075,448874,449691,444510,34255,43,409.82,410.255,414.619,415.436,28.414,260.027,491.623,231.632,463.228,694.824
1,rea,axc,2,130518,rea_axc_run2_130518,BX,2800,T,X,red,Below,1,1,0,0,,794,1,1,0,452474,457273,458067,0,34255,44,418.219,-34.255,423.018,423.812,28.414,260.027,491.623,231.632,463.228,694.824
1,rea,axc,2,130518,rea_axc_run2_130518,Bng,2800,P,4,red,Below,1,,466,1,1,0,1,,1,460872,465671,0,461338,34255,45,426.617,427.083,431.416,-34.255,28.414,260.027,491.623,231.632,463.228,694.824
1,rea,axc,2,130518,rea_axc_run2_130518,BX,4000,H,X,red,Below,1,1,0,0,,497,1,1,0,469271,474070,474567,0,34255,46,435.016,-34.255,439.815,440.312,28.414,260.027,491.623,231.632,463.228,694.824
1,rea,axc,2,130518,rea_axc_run2_130518,AX,4000,A,X,white,Above,1,2,444,1,1,293,1,2,1,478869,483669,483962,479313,34255,47,444.614,445.058,449.414,449.707,28.414,260.027,491.623,231.632,463.228,694.824
1,rea,axc,2,130518,rea_axc_run2_130518,BY,4000,N,D,white,Above,1,1,333,1,1,455,1,1,1,488468,493267,493722,488801,34255,48,454.213,454.546,459.012,459.467,28.414,260.027,491.623,231.632,463.228,694.824
1,rea,axc,2,130518,rea_axc_run2_130518,AY,4000,A,U,red,Below,1,1,335,1,1,591,1,1,1,528078,532877,533468,528413,34255,49,493.823,494.158,498.622,499.213,28.414,260.027,491.623,231.632,463.228,694.824
1,rea,axc,2,130518,rea_axc_run2_130518,Ang,2800,A,3,red,Below,1,,358,1,1,0,1,,1,537677,542476,0,538035,34255,50,503.422,503.78,508.221,-34.255,28.414,260.027,491.623,231.632,463.228,694.824
1,rea,axc,2,130518,rea_axc_run2_130518,AY,2800,A,M,red,Below,1,1,415,1,1,492,1,1,1,546075,550874,551366,546490,34255,51,511.82,512.235,516.619,517.111,28.414,260.027,491.623,231.632,463.228,694.824
1,rea,axc,2,130518,rea_axc_run2_130518,BX,2800,H,X,red,Below,1,1,339,1,1,419,1,1,1,554474,559273,559692,554813,34255,52,520.219,520.558,525.018,525.437,28.414,260.027,491.623,231.632,463.228,694.824
1,rea,axc,2,130518,rea_axc_run2_130518,AX,1600,A,X,white,Above,1,2,334,1,1,278,1,2,1,562872,567672,567950,563206,34255,53,528.617,528.951,533.417,533.695,28.414,260.027,491.623,231.632,463.228,694.824
1,rea,axc,2,130518,rea_axc_run2_130518,Bng,4000,F,9,red,Below,1,,925,1,1,0,1,,1,570071,574871,0,570996,34255,54,535.816,536.741,540.616,-34.255,28.414,260.027,491.623,231.632,463.228,694.824
1,rea,axc,2,130518,rea_axc_run2_130518,AX,1600,A,X,white,Above,1,2,409,1,1,386,1,2,1,579670,584469,584855,580079,34255,55,545.415,545.824,550.214,550.6,28.414,260.027,491.623,231.632,463.228,694.824
1,rea,axc,2,130518,rea_axc_run2_130518,BY,1600,M,U,white,Above,1,1,704,1,1,462,1,1,1,586869,591668,592130,587573,34255,56,552.614,553.318,557.413,557.875,28.414,260.027,491.623,231.632,463.228,694.824
1,rea,axc,2,130518,rea_axc_run2_130518,BY,2800,H,C,white,Above,1,1,893,1,1,333,1,1,1,594067,598867,599200,594960,34255,57,559.812,560.705,564.612,564.945,28.414,260.027,491.623,231.632,463.228,694.824
1,rea,axc,2,130518,rea_axc_run2_130518,BY,1600,T,H,white,Above,1,1,620,1,1,643,1,1,1,602483,607282,607925,603103,34255,58,568.228,568.848,573.027,573.67,28.414,260.027,491.623,231.632,463.228,694.824
1,rea,axc,2,130518,rea_axc_run2_130518,Bng,4000,M,4,red,Below,1,,554,1,1,0,1,,1,609682,614481,0,610236,34255,59,575.427,575.981,580.226,-34.255,28.414,260.027,491.623,231.632,463.228,694.824
1,rea,axc,2,130518,rea_axc_run2_130518,AX,4000,A,X,white,Above,1,2,887,1,1,253,1,2,1,619280,624079,624332,620167,34255,60,585.025,585.912,589.824,590.077,28.414,260.027,491.623,231.632,463.228,694.824
1,rea,axc,2,130518,rea_axc_run2_130518,BY,2800,D,C,white,Above,1,1,385,1,1,418,1,1,1,628879,633678,634096,629264,34255,61,594.624,595.009,599.423,599.841,28.414,260.027,491.623,231.632,463.228,694.824
1,rea,axc,2,130518,rea_axc_run2_130518,BX,4000,T,X,red,Below,1,1,745,1,1,510,1,1,1,637277,642076,642586,638022,34255,62,603.022,603.767,607.821,608.331,28.414,260.027,491.623,231.632,463.228,694.824
1,rea,axc,2,130518,rea_axc_run2_130518,BY,4000,C,F,white,Above,1,1,529,1,1,829,1,1,1,646876,651675,652504,647405,34255,63,612.621,613.15,617.42,618.249,28.414,260.027,491.623,231.632,463.228,694.824
1,rea,axc,2,130518,rea_axc_run2_130518,BY,2800,N,H,white,Above,1,1,938,1,1,358,1,1,1,656474,661273,661631,657412,34255,64,622.219,623.157,627.018,627.376,28.414,260.027,491.623,231.632,463.228,694.824
1,rea,axc,2,130518,rea_axc_run2_130518,BY,1600,M,N,white,Above,1,1,842,1,1,510,1,1,1,664873,669672,670182,665715,34255,65,630.618,631.46,635.417,635.927,28.414,260.027,491.623,231.632,463.228,694.824
1,rea,axc,2,130518,rea_axc_run2_130518,AX,4000,A,X,white,Above,1,2,503,1,1,326,1,2,1,672072,676871,677197,672575,34255,66,637.817,638.32,642.616,642.942,28.414,260.027,491.623,231.632,463.228,694.824
1,rea,axc,2,130518,rea_axc_run2_130518,AX,1600,A,X,white,Above,1,2,515,1,1,380,1,2,1,681670,686469,686849,682185,34255,67,647.415,647.93,652.214,652.594,28.414,260.027,491.623,231.632,463.228,694.824
1,rea,axc,2,130518,rea_axc_run2_130518,AX,2800,A,X,white,Above,1,2,411,1,1,404,1,2,1,688869,693668,694072,689280,34255,68,654.614,655.025,659.413,659.817,28.414,260.027,491.623,231.632,463.228,694.824
1,rea,axc,2,130518,rea_axc_run2_130518,BY,1600,C,N,white,Above,1,1,832,1,1,451,1,1,1,697268,702067,702518,698100,34255,69,663.013,663.845,667.812,668.263,28.414,260.027,491.623,231.632,463.228,694.824
1,rea,axc,2,130518,rea_axc_run2_130518,Ang,4000,A,5,red,Below,1,,394,1,1,0,1,,1,704483,709282,0,704877,34255,70,670.228,670.622,675.027,-34.255,28.414,260.027,491.623,231.632,463.228,694.824
1,rea,axc,2,130518,rea_axc_run2_130518,AX,2800,A,X,white,Above,1,2,414,1,1,308,1,2,1,714082,718881,719189,714496,34255,71,679.827,680.241,684.626,684.934,28.414,260.027,491.623,231.632,463.228,694.824
1,rea,axc,2,130518,rea_axc_run2_130518,AX,1600,A,X,white,Above,1,2,377,1,1,378,1,2,1,722480,727279,727657,722857,34255,72,688.225,688.602,693.024,693.402,28.414,260.027,491.623,231.632,463.228,694.824
1,bas,axc,1,132017,bas_axc_run1_132017,BY,1600,U,P,white,center,1,1,461,1,1,970,1,1,1,149461,154261,155231,149922,118838,1,30.623,31.084,35.423,36.393,28.424,260.02,491.617,231.625,463.222,694.818
1,bas,axc,1,132017,bas_axc_run1_132017,BY,4000,T,M,white,center,1,1,689,1,1,429,1,1,1,156660,161459,161888,157349,118838,2,37.822,38.511,42.621,43.05,28.424,260.02,491.617,231.625,463.222,694.818
1,bas,axc,1,132017,bas_axc_run1_132017,AX,1600,A,X,white,center,1,2,636,1,1,341,1,2,1,166259,171058,171399,166895,118838,3,47.421,48.057,52.22,52.561,28.424,260.02,491.617,231.625,463.222,694.818
1,bas,axc,1,132017,bas_axc_run1_132017,AX,1600,A,X,white,center,1,2,646,1,1,374,1,2,1,173458,178257,178631,174104,118838,4,54.62,55.266,59.419,59.793,28.424,260.02,491.617,231.625,463.222,694.818
1,bas,axc,1,132017,bas_axc_run1_132017,BY,2800,H,T,white,center,1,1,499,1,1,667,1,1,1,180656,185456,186123,181155,118838,5,61.818,62.317,66.618,67.285,28.424,260.02,491.617,231.625,463.222,694.818
1,bas,axc,1,132017,bas_axc_run1_132017,BX,2800,F,X,white,center,1,1,609,1,1,617,0,2,0,189055,193854,194471,189664,118838,6,70.217,70.826,75.016,75.633,28.424,260.02,491.617,231.625,463.222,694.818
1,bas,axc,1,132017,bas_axc_run1_132017,AX,4000,A,X,white,center,1,2,530,1,1,354,1,2,1,197454,202253,202607,197984,118838,7,78.616,79.146,83.415,83.769,28.424,260.02,491.617,231.625,463.222,694.818
1,bas,axc,1,132017,bas_axc_run1_132017,AX,2800,A,X,white,center,1,2,322,1,1,335,1,2,1,207052,211852,212187,207374,118838,8,88.214,88.536,93.014,93.349,28.424,260.02,491.617,231.625,463.222,694.818
1,bas,axc,1,132017,bas_axc_run1_132017,AY,4000,A,N,white,center,1,1,355,1,1,998,1,1,1,215451,220250,221248,215806,118838,9,96.613,96.968,101.412,102.41,28.424,260.02,491.617,231.625,463.222,694.818
1,bas,axc,1,132017,bas_axc_run1_132017,Bng,4000,F,9,white,center,1,,506,1,1,0,1,,1,225049,229849,0,225555,118838,10,106.211,106.717,111.011,-118.838,28.424,260.02,491.617,231.625,463.222,694.818
1,bas,axc,1,132017,bas_axc_run1_132017,Ang,2800,A,3,white,center,1,,511,1,1,0,1,,1,234648,239447,0,235159,118838,11,115.81,116.321,120.609,-118.838,28.424,260.02,491.617,231.625,463.222,694.818
1,bas,axc,1,132017,bas_axc_run1_132017,BY,1600,N,P,white,center,1,1,397,1,1,501,1,1,1,243047,247862,248363,243444,118838,12,124.209,124.606,129.024,129.525,28.424,260.02,491.617,231.625,463.222,694.818
1,bas,axc,1,132017,bas_axc_run1_132017,BY,1600,F,M,white,center,1,1,768,1,1,526,1,1,1,250262,255061,255587,251030,118838,13,131.424,132.192,136.223,136.749,28.424,260.02,491.617,231.625,463.222,694.818
1,bas,axc,1,132017,bas_axc_run1_132017,AX,2800,A,X,white,center,1,2,523,1,1,339,1,2,1,257461,262260,262599,257984,118838,14,138.623,139.146,143.422,143.761,28.424,260.02,491.617,231.625,463.222,694.818
1,bas,axc,1,132017,bas_axc_run1_132017,AY,4000,A,H,white,center,1,1,401,1,1,492,1,1,1,265860,270659,271151,266261,118838,15,147.022,147.423,151.821,152.313,28.424,260.02,491.617,231.625,463.222,694.818
1,bas,axc,1,132017,bas_axc_run1_132017,Bng,4000,D,4,white,center,1,,479,1,1,495,0,1,0,275458,280257,280752,275937,118838,16,156.62,157.099,161.419,161.914,28.424,260.02,491.617,231.625,463.222,694.818
1,bas,axc,1,132017,bas_axc_run1_132017,AX,1600,A,X,white,center,1,2,343,1,1,458,1,2,1,285057,289856,290314,285400,118838,17,166.219,166.562,171.018,171.476,28.424,260.02,491.617,231.625,463.222,694.818
1,bas,axc,1,132017,bas_axc_run1_132017,BY,4000,M,P,white,center,1,1,646,1,1,389,1,1,1,292255,297055,297444,292901,118838,18,173.417,174.063,178.217,178.606,28.424,260.02,491.617,231.625,463.222,694.818
1,bas,axc,1,132017,bas_axc_run1_132017,Ang,1600,A,9,white,center,1,,374,1,1,0,1,,1,301854,306653,0,302228,118838,19,183.016,183.39,187.815,-118.838,28.424,260.02,491.617,231.625,463.222,694.818
1,bas,axc,1,132017,bas_axc_run1_132017,BY,2800,N,U,white,center,1,1,608,1,1,494,1,1,1,309053,313852,314346,309661,118838,20,190.215,190.823,195.014,195.508,28.424,260.02,491.617,231.625,463.222,694.818
1,bas,axc,1,132017,bas_axc_run1_132017,BX,2800,C,X,white,center,1,1,570,1,1,827,1,1,1,317451,322251,323078,318021,118838,21,198.613,199.183,203.413,204.24,28.424,260.02,491.617,231.625,463.222,694.818
1,bas,axc,1,132017,bas_axc_run1_132017,AX,4000,A,X,white,center,1,2,499,1,1,311,1,2,1,325850,330649,330960,326349,118838,22,207.012,207.511,211.811,212.122,28.424,260.02,491.617,231.625,463.222,694.818
1,bas,axc,1,132017,bas_axc_run1_132017,AX,2800,A,X,white,center,1,2,433,1,1,425,1,2,1,335449,340248,340673,335882,118838,23,216.611,217.044,221.41,221.835,28.424,260.02,491.617,231.625,463.222,694.818
1,bas,axc,1,132017,bas_axc_run1_132017,BY,1600,D,N,white,center,1,1,966,1,1,505,1,1,1,343847,348647,349152,344813,118838,24,225.009,225.975,229.809,230.314,28.424,260.02,491.617,231.625,463.222,694.818
1,bas,axc,1,132017,bas_axc_run1_132017,AX,2800,A,X,white,center,1,2,639,1,1,368,1,2,1,381058,385857,386225,381697,118838,25,262.22,262.859,267.019,267.387,28.424,260.02,491.617,231.625,463.222,694.818
1,bas,axc,1,132017,bas_axc_run1_132017,BX,4000,P,X,white,center,1,1,465,1,1,437,1,1,1,389457,394256,394693,389922,118838,26,270.619,271.084,275.418,275.855,28.424,260.02,491.617,231.625,463.222,694.818
1,bas,axc,1,132017,bas_axc_run1_132017,AX,1600,A,X,white,center,1,2,552,1,1,318,1,2,1,399055,403854,404172,399607,118838,27,280.217,280.769,285.016,285.334,28.424,260.02,491.617,231.625,463.222,694.818
1,bas,axc,1,132017,bas_axc_run1_132017,AY,2800,A,D,white,center,1,1,737,1,1,590,1,1,1,406254,411053,411643,406991,118838,28,287.416,288.153,292.215,292.805,28.424,260.02,491.617,231.625,463.222,694.818
1,bas,axc,1,132017,bas_axc_run1_132017,BY,4000,C,D,white,center,1,1,463,1,1,439,1,1,1,414653,419452,419891,415116,118838,29,295.815,296.278,300.614,301.053,28.424,260.02,491.617,231.625,463.222,694.818
1,bas,axc,1,132017,bas_axc_run1_132017,Ang,2800,A,1,white,center,1,,485,1,1,0,1,,1,424251,429051,0,424736,118838,30,305.413,305.898,310.213,-118.838,28.424,260.02,491.617,231.625,463.222,694.818
1,bas,axc,1,132017,bas_axc_run1_132017,BY,1600,P,H,white,center,1,1,424,1,1,459,1,1,1,432650,437449,437908,433074,118838,31,313.812,314.236,318.611,319.07,28.424,260.02,491.617,231.625,463.222,694.818
1,bas,axc,1,132017,bas_axc_run1_132017,Bng,1600,P,4,white,center,1,,492,1,1,0,1,,1,439849,444648,0,440341,118838,32,321.011,321.503,325.81,-118.838,28.424,260.02,491.617,231.625,463.222,694.818
1,bas,axc,1,132017,bas_axc_run1_132017,BY,4000,F,C,white,center,1,1,535,1,1,490,1,1,1,447048,451847,452337,447583,118838,33,328.21,328.745,333.009,333.499,28.424,260.02,491.617,231.625,463.222,694.818
1,bas,axc,1,132017,bas_axc_run1_132017,BY,1600,C,M,white,center,1,1,447,1,1,515,1,1,1,456663,461462,461977,457110,118838,34,337.825,338.272,342.624,343.139,28.424,260.02,491.617,231.625,463.222,694.818
1,bas,axc,1,132017,bas_axc_run1_132017,AX,4000,A,X,white,center,1,2,547,1,1,393,1,2,1,463862,468661,469054,464409,118838,35,345.024,345.571,349.823,350.216,28.424,260.02,491.617,231.625,463.222,694.818
1,bas,axc,1,132017,bas_axc_run1_132017,AX,2800,A,X,white,center,1,2,541,1,1,355,1,2,1,473460,478259,478614,474001,118838,36,354.622,355.163,359.421,359.776,28.424,260.02,491.617,231.625,463.222,694.818
1,bas,axc,1,132017,bas_axc_run1_132017,Ang,1600,A,7,white,center,1,,404,1,1,0,1,,1,481859,486658,0,482263,118838,37,363.021,363.425,367.82,-118.838,28.424,260.02,491.617,231.625,463.222,694.818
1,bas,axc,1,132017,bas_axc_run1_132017,AX,4000,A,X,white,center,1,2,658,1,1,623,1,2,1,489058,493857,494480,489716,118838,38,370.22,370.878,375.019,375.642,28.424,260.02,491.617,231.625,463.222,694.818
1,bas,axc,1,132017,bas_axc_run1_132017,AY,4000,A,T,white,center,1,1,394,1,1,598,1,1,1,498656,503455,504053,499050,118838,39,379.818,380.212,384.617,385.215,28.424,260.02,491.617,231.625,463.222,694.818
1,bas,axc,1,132017,bas_axc_run1_132017,Bng,2800,P,9,white,center,1,,525,1,1,0,1,,1,508255,513054,0,508780,118838,40,389.417,389.942,394.216,-118.838,28.424,260.02,491.617,231.625,463.222,694.818
1,bas,axc,1,132017,bas_axc_run1_132017,AX,1600,A,X,white,center,1,2,509,1,1,541,1,2,1,516653,521453,521994,517162,118838,41,397.815,398.324,402.615,403.156,28.424,260.02,491.617,231.625,463.222,694.818
1,bas,axc,1,132017,bas_axc_run1_132017,BX,1600,U,X,white,center,1,1,995,1,1,1241,1,1,1,523852,528651,529892,524847,118838,42,405.014,406.009,409.813,411.054,28.424,260.02,491.617,231.625,463.222,694.818
1,bas,axc,1,132017,bas_axc_run1_132017,AX,4000,A,X,white,center,1,2,524,1,1,257,1,2,1,531051,535850,536107,531575,118838,43,412.213,412.737,417.012,417.269,28.424,260.02,491.617,231.625,463.222,694.818
1,bas,axc,1,132017,bas_axc_run1_132017,BY,2800,H,U,white,center,1,1,383,1,1,635,1,1,1,540650,545449,546084,541033,118838,44,421.812,422.195,426.611,427.246,28.424,260.02,491.617,231.625,463.222,694.818
1,bas,axc,1,132017,bas_axc_run1_132017,AX,2800,A,X,white,center,1,2,461,1,1,447,1,2,1,549048,553847,554294,549509,118838,45,430.21,430.671,435.009,435.456,28.424,260.02,491.617,231.625,463.222,694.818
1,bas,axc,1,132017,bas_axc_run1_132017,BY,1600,M,F,white,center,1,1,532,1,1,566,1,1,1,557447,562263,562829,557979,118838,46,438.609,439.141,443.425,443.991,28.424,260.02,491.617,231.625,463.222,694.818
1,bas,axc,1,132017,bas_axc_run1_132017,BY,2800,P,M,white,center,1,1,684,1,1,511,1,1,1,564662,569462,569973,565346,118838,47,445.824,446.508,450.624,451.135,28.424,260.02,491.617,231.625,463.222,694.818
1,bas,axc,1,132017,bas_axc_run1_132017,BY,4000,U,D,white,center,1,1,634,1,1,386,1,1,1,573061,577860,578246,573695,118838,48,454.223,454.857,459.022,459.408,28.424,260.02,491.617,231.625,463.222,694.818
1,bas,axc,1,132017,bas_axc_run1_132017,AX,2800,A,X,white,center,1,2,433,1,1,532,1,2,1,612655,617454,617986,613088,118838,49,493.817,494.25,498.616,499.148,28.424,260.02,491.617,231.625,463.222,694.818
1,bas,axc,1,132017,bas_axc_run1_132017,Bng,4000,U,5,white,center,1,,572,1,1,0,1,,1,621053,625853,0,621625,118838,50,502.215,502.787,507.015,-118.838,28.424,260.02,491.617,231.625,463.222,694.818
1,bas,axc,1,132017,bas_axc_run1_132017,AY,2800,A,H,white,center,1,1,368,1,1,499,1,1,1,630652,635451,635950,631020,118838,51,511.814,512.182,516.613,517.112,28.424,260.02,491.617,231.625,463.222,694.818
1,bas,axc,1,132017,bas_axc_run1_132017,AY,4000,A,T,white,center,1,1,310,1,1,459,1,1,1,639051,643850,644309,639361,118838,52,520.213,520.523,525.012,525.471,28.424,260.02,491.617,231.625,463.222,694.818
1,bas,axc,1,132017,bas_axc_run1_132017,AX,4000,A,X,white,center,1,2,395,1,1,326,1,2,1,648649,653448,653774,649044,118838,53,529.811,530.206,534.61,534.936,28.424,260.02,491.617,231.625,463.222,694.818
1,bas,axc,1,132017,bas_axc_run1_132017,BY,1600,T,N,white,center,1,1,332,1,1,596,1,1,1,658248,663047,663643,658580,118838,54,539.41,539.742,544.209,544.805,28.424,260.02,491.617,231.625,463.222,694.818
1,bas,axc,1,132017,bas_axc_run1_132017,BY,4000,D,T,white,center,1,1,889,1,1,542,1,1,1,665463,670262,670804,666352,118838,55,546.625,547.514,551.424,551.966,28.424,260.02,491.617,231.625,463.222,694.818
1,bas,axc,1,132017,bas_axc_run1_132017,BX,1600,M,X,white,center,1,1,496,1,1,704,0,2,0,675062,679861,680565,675558,118838,56,556.224,556.72,561.023,561.727,28.424,260.02,491.617,231.625,463.222,694.818
1,bas,axc,1,132017,bas_axc_run1_132017,AX,2800,A,X,white,center,1,2,359,1,1,526,1,2,1,682260,687060,687586,682619,118838,57,563.422,563.781,568.222,568.748,28.424,260.02,491.617,231.625,463.222,694.818
1,bas,axc,1,132017,bas_axc_run1_132017,BY,1600,M,P,white,center,1,1,503,1,1,516,1,1,1,690659,695458,695974,691162,118838,58,571.821,572.324,576.62,577.136,28.424,260.02,491.617,231.625,463.222,694.818
1,bas,axc,1,132017,bas_axc_run1_132017,AX,1600,A,X,white,center,1,2,594,1,1,387,1,2,1,697858,702657,703044,698452,118838,59,579.02,579.614,583.819,584.206,28.424,260.02,491.617,231.625,463.222,694.818
1,bas,axc,1,132017,bas_axc_run1_132017,Ang,2800,A,5,white,center,1,,558,1,1,0,1,,1,705057,709856,0,705615,118838,60,586.219,586.777,591.018,-118.838,28.424,260.02,491.617,231.625,463.222,694.818
1,bas,axc,1,132017,bas_axc_run1_132017,AX,1600,A,X,white,center,1,2,458,1,1,464,1,2,1,713456,718255,718719,713914,118838,61,594.618,595.076,599.417,599.881,28.424,260.02,491.617,231.625,463.222,694.818
1,bas,axc,1,132017,bas_axc_run1_132017,BY,4000,H,T,white,center,1,1,423,1,1,520,1,1,1,720654,725454,725974,721077,118838,62,601.816,602.239,606.616,607.136,28.424,260.02,491.617,231.625,463.222,694.818
1,bas,axc,1,132017,bas_axc_run1_132017,AX,2800,A,X,white,center,1,2,454,1,1,477,1,2,1,730253,735052,735529,730707,118838,63,611.415,611.869,616.214,616.691,28.424,260.02,491.617,231.625,463.222,694.818
1,bas,axc,1,132017,bas_axc_run1_132017,AX,2800,A,X,white,center,1,2,331,1,1,408,1,2,1,738652,743451,743859,738983,118838,64,619.814,620.145,624.613,625.021,28.424,260.02,491.617,231.625,463.222,694.818
1,bas,axc,1,132017,bas_axc_run1_132017,BX,4000,F,X,white,center,1,1,653,1,1,659,0,2,0,747050,751849,752508,747703,118838,65,628.212,628.865,633.011,633.67,28.424,260.02,491.617,231.625,463.222,694.818
1,bas,axc,1,132017,bas_axc_run1_132017,BY,2800,N,P,white,center,1,1,538,1,1,480,1,1,1,756649,761448,761928,757187,118838,66,637.811,638.349,642.61,643.09,28.424,260.02,491.617,231.625,463.222,694.818
1,bas,axc,1,132017,bas_axc_run1_132017,BY,4000,D,T,white,center,1,1,536,1,1,548,1,1,1,765047,769847,770395,765583,118838,67,646.209,646.745,651.009,651.557,28.424,260.02,491.617,231.625,463.222,694.818
1,bas,axc,1,132017,bas_axc_run1_132017,BY,1600,U,D,white,center,1,1,1043,1,1,367,1,1,1,774663,779462,779829,775706,118838,68,655.825,656.868,660.624,660.991,28.424,260.02,491.617,231.625,463.222,694.818
1,bas,axc,1,132017,bas_axc_run1_132017,BY,1600,D,N,white,center,1,1,523,1,1,378,1,1,1,781861,786661,787039,782384,118838,69,663.023,663.546,667.823,668.201,28.424,260.02,491.617,231.625,463.222,694.818
1,bas,axc,1,132017,bas_axc_run1_132017,Ang,4000,A,1,white,center,1,,604,1,1,0,1,,1,789060,793859,0,789664,118838,70,670.222,670.826,675.021,-118.838,28.424,260.02,491.617,231.625,463.222,694.818
