wave,session,task,run,subj,name,trial.type,load,numtrials,probe,iti,acc,rt,resp,cresp,time.cue.onset.abs,time.target.onset.abs,time.rt.abs,time.scan.start,trial.num,time.cue.onset,time.target.onset,time.rt,time.block1.on,time.block2.on,time.block3.on,time.block1.off,time.block2.off,time.block3.off,trialtype,trialtype_alt
1,bas,ste,1,DMCC8760894,bas_ste_run1_DMCC8760894,NP,5,3,syrup,2800,1,915,1,1,158667,167466,168381,127840,1,30.827,39.626,40.541,28.427,256.425,484.424,228.027,456.026,684.025,LL5NP,NP_5
1,bas,ste,1,DMCC8760894,bas_ste_run1_DMCC8760894,NN,8,2,scale,4000,1,874,2,2,171866,180665,181539,127840,2,44.026,52.825,53.699,28.427,256.425,484.424,228.027,456.026,684.025,not5NN,NN_8
1,bas,ste,1,DMCC8760894,bas_ste_run1_DMCC8760894,NN,8,2,doll,4000,1,836,2,2,186265,195064,195900,127840,3,58.425,67.224,68.06,28.427,256.425,484.424,228.027,456.026,684.025,not5NN,NN_8
1,bas,ste,1,DMCC8760894,bas_ste_run1_DMCC8760894,NP,5,3,threat,1600,1,1275,1,1,200664,209463,210738,127840,4,72.824,81.623,82.898,28.427,256.425,484.424,228.027,456.026,684.025,LL5NP,NP_5
1,bas,ste,1,DMCC8760894,bas_ste_run1_DMCC8760894,NN,6,1,parrot,2800,1,749,2,2,212663,221463,222212,127840,5,84.823,93.623,94.372,28.427,256.425,484.424,228.027,456.026,684.025,not5NN,NN_6
1,bas,ste,1,DMCC8760894,bas_ste_run1_DMCC8760894,NP,8,2,chance,1600,0,1063,2,1,225862,234662,235725,127840,6,98.022,106.822,107.885,28.427,256.425,484.424,228.027,456.026,684.025,not5NP,NP_8
1,bas,ste,1,DMCC8760894,bas_ste_run1_DMCC8760894,NN,5,2,blur,4000,1,901,2,2,237861,246661,247562,127840,7,110.021,118.821,119.722,28.427,256.425,484.424,228.027,456.026,684.025,LL5NN,NN_5
1,bas,ste,1,DMCC8760894,bas_ste_run1_DMCC8760894,NP,7,2,rash,4000,1,1408,1,1,252261,261060,262468,127840,8,124.421,133.22,134.628,28.427,256.425,484.424,228.027,456.026,684.025,not5NP,NP_7
1,bas,ste,1,DMCC8760894,bas_ste_run1_DMCC8760894,NN,5,2,tube,1600,1,751,2,2,266660,275459,276210,127840,9,138.82,147.619,148.37,28.427,256.425,484.424,228.027,456.026,684.025,LL5NN,NN_5
1,bas,ste,1,DMCC8760894,bas_ste_run1_DMCC8760894,NP,5,3,share,2800,1,1493,1,1,278659,287458,288951,127840,10,150.819,159.618,161.111,28.427,256.425,484.424,228.027,456.026,684.025,LL5NP,NP_5
1,bas,ste,1,DMCC8760894,bas_ste_run1_DMCC8760894,NP,7,2,wealth,4000,0,778,2,1,291858,300657,301435,127840,11,164.018,172.817,173.595,28.427,256.425,484.424,228.027,456.026,684.025,not5NP,NP_7
1,bas,ste,1,DMCC8760894,bas_ste_run1_DMCC8760894,NP,8,2,bush,2800,1,1061,1,1,306257,315057,316118,127840,12,178.417,187.217,188.278,28.427,256.425,484.424,228.027,456.026,684.025,not5NP,NP_8
1,bas,ste,1,DMCC8760894,bas_ste_run1_DMCC8760894,NN,7,1,straw,1600,1,1016,2,2,319456,328256,329272,127840,13,191.616,200.416,201.432,28.427,256.425,484.424,228.027,456.026,684.025,not5NN,NN_7
1,bas,ste,1,DMCC8760894,bas_ste_run1_DMCC8760894,NP,6,1,frost,1600,0,1387,2,1,331455,340255,341642,127840,14,203.615,212.415,213.802,28.427,256.425,484.424,228.027,456.026,684.025,not5NP,NP_6
1,bas,ste,1,DMCC8760894,bas_ste_run1_DMCC8760894,RN,5,1,quart,2800,1,980,2,2,343455,352254,353234,127840,15,215.615,224.414,225.394,28.427,256.425,484.424,228.027,456.026,684.025,LL5RN,RN_5
1,bas,ste,1,DMCC8760894,bas_ste_run1_DMCC8760894,NN,6,1,taxi,2800,1,1275,2,2,386665,395465,396740,127840,16,258.825,267.625,268.9,28.427,256.425,484.424,228.027,456.026,684.025,not5NN,NN_6
1,bas,ste,1,DMCC8760894,bas_ste_run1_DMCC8760894,NN,8,2,liar,1600,1,1007,2,2,399864,408664,409671,127840,17,272.024,280.824,281.831,28.427,256.425,484.424,228.027,456.026,684.025,not5NN,NN_8
1,bas,ste,1,DMCC8760894,bas_ste_run1_DMCC8760894,NP,7,2,need,1600,1,1194,1,1,411864,420663,421857,127840,18,284.024,292.823,294.017,28.427,256.425,484.424,228.027,456.026,684.025,not5NP,NP_7
1,bas,ste,1,DMCC8760894,bas_ste_run1_DMCC8760894,NP,7,2,bean,4000,1,1394,1,1,423863,432662,434056,127840,19,296.023,304.822,306.216,28.427,256.425,484.424,228.027,456.026,684.025,not5NP,NP_7
1,bas,ste,1,DMCC8760894,bas_ste_run1_DMCC8760894,NP,8,3,bees,4000,1,1030,1,1,438262,447061,448091,127840,20,310.422,319.221,320.251,28.427,256.425,484.424,228.027,456.026,684.025,not5NP,NP_8
1,bas,ste,1,DMCC8760894,bas_ste_run1_DMCC8760894,NP,5,3,visit,2800,1,1197,1,1,452661,461460,462657,127840,21,324.821,333.62,334.817,28.427,256.425,484.424,228.027,456.026,684.025,LL5NP,NP_5
1,bas,ste,1,DMCC8760894,bas_ste_run1_DMCC8760894,NN,7,1,logic,2800,1,988,2,2,465860,474660,475648,127840,22,338.02,346.82,347.808,28.427,256.425,484.424,228.027,456.026,684.025,not5NN,NN_7
1,bas,ste,1,DMCC8760894,bas_ste_run1_DMCC8760894,NP,5,3,people,4000,1,1113,1,1,479059,487859,488972,127840,23,351.219,360.019,361.132,28.427,256.425,484.424,228.027,456.026,684.025,LL5NP,NP_5
1,bas,ste,1,DMCC8760894,bas_ste_run1_DMCC8760894,NN,8,2,heater,1600,1,1064,2,2,493458,502258,503322,127840,24,365.618,374.418,375.482,28.427,256.425,484.424,228.027,456.026,684.025,not5NN,NN_8
1,bas,ste,1,DMCC8760894,bas_ste_run1_DMCC8760894,RN,5,1,noise,4000,0,1138,1,2,505458,514257,515395,127840,25,377.618,386.417,387.555,28.427,256.425,484.424,228.027,456.026,684.025,LL5RN,RN_5
1,bas,ste,1,DMCC8760894,bas_ste_run1_DMCC8760894,NN,5,2,pole,2800,1,1174,2,2,519857,528656,529830,127840,26,392.017,400.816,401.99,28.427,256.425,484.424,228.027,456.026,684.025,LL5NN,NN_5
1,bas,ste,1,DMCC8760894,bas_ste_run1_DMCC8760894,NP,8,3,city,2800,1,1164,1,1,533056,541855,543019,127840,27,405.216,414.015,415.179,28.427,256.425,484.424,228.027,456.026,684.025,not5NP,NP_8
1,bas,ste,1,DMCC8760894,bas_ste_run1_DMCC8760894,NP,8,3,carpet,1600,0,1448,2,1,546255,555054,556502,127840,28,418.415,427.214,428.662,28.427,256.425,484.424,228.027,456.026,684.025,not5NP,NP_8
1,bas,ste,1,DMCC8760894,bas_ste_run1_DMCC8760894,NP,5,3,tags,4000,0,0,,1,558254,567054,0,127840,29,430.414,439.214,-127.84,28.427,256.425,484.424,228.027,456.026,684.025,LL5NP,NP_5
1,bas,ste,1,DMCC8760894,bas_ste_run1_DMCC8760894,NN,5,2,greed,1600,1,1048,2,2,572667,581466,582514,127840,30,444.827,453.626,454.674,28.427,256.425,484.424,228.027,456.026,684.025,LL5NN,NN_5
1,bas,ste,1,DMCC8760894,bas_ste_run1_DMCC8760894,NN,5,2,pans,2800,1,1270,2,2,614664,623463,624733,127840,31,486.824,495.623,496.893,28.427,256.425,484.424,228.027,456.026,684.025,LL5NN,NN_5
1,bas,ste,1,DMCC8760894,bas_ste_run1_DMCC8760894,NP,5,3,muscle,1600,1,1087,1,1,627863,636662,637749,127840,32,500.023,508.822,509.909,28.427,256.425,484.424,228.027,456.026,684.025,LL5NP,NP_5
1,bas,ste,1,DMCC8760894,bas_ste_run1_DMCC8760894,NP,8,2,bugs,4000,0,938,2,1,639862,648662,649600,127840,33,512.022,520.822,521.76,28.427,256.425,484.424,228.027,456.026,684.025,not5NP,NP_8
1,bas,ste,1,DMCC8760894,bas_ste_run1_DMCC8760894,RN,5,1,fusion,1600,1,1338,2,2,654261,663061,664399,127840,34,526.421,535.221,536.559,28.427,256.425,484.424,228.027,456.026,684.025,LL5RN,RN_5
1,bas,ste,1,DMCC8760894,bas_ste_run1_DMCC8760894,NN,8,2,shell,4000,1,884,2,2,666261,675060,675944,127840,35,538.421,547.22,548.104,28.427,256.425,484.424,228.027,456.026,684.025,not5NN,NN_8
1,bas,ste,1,DMCC8760894,bas_ste_run1_DMCC8760894,NP,7,1,clue,2800,0,895,2,1,680660,689459,690354,127840,36,552.82,561.619,562.514,28.427,256.425,484.424,228.027,456.026,684.025,not5NP,NP_7
1,bas,ste,1,DMCC8760894,bas_ste_run1_DMCC8760894,NP,8,2,wife,1600,1,789,1,1,693859,702658,703447,127840,37,566.019,574.818,575.607,28.427,256.425,484.424,228.027,456.026,684.025,not5NP,NP_8
1,bas,ste,1,DMCC8760894,bas_ste_run1_DMCC8760894,NN,5,2,gift,2800,1,1234,2,2,705858,714657,715891,127840,38,578.018,586.817,588.051,28.427,256.425,484.424,228.027,456.026,684.025,LL5NN,NN_5
1,bas,ste,1,DMCC8760894,bas_ste_run1_DMCC8760894,NP,6,1,food,1600,0,1417,2,1,719057,727857,729274,127840,39,591.217,600.017,601.434,28.427,256.425,484.424,228.027,456.026,684.025,not5NP,NP_6
1,bas,ste,1,DMCC8760894,bas_ste_run1_DMCC8760894,RN,8,1,ground,4000,1,1277,2,2,731056,739856,741133,127840,40,603.216,612.016,613.293,28.427,256.425,484.424,228.027,456.026,684.025,not5RN,RN_8
1,bas,ste,1,DMCC8760894,bas_ste_run1_DMCC8760894,NP,5,3,marker,2800,0,0,,1,745456,754255,0,127840,41,617.616,626.415,-127.84,28.427,256.425,484.424,228.027,456.026,684.025,LL5NP,NP_5
1,bas,ste,1,DMCC8760894,bas_ste_run1_DMCC8760894,NN,8,2,signal,4000,0,0,,2,758655,767454,0,127840,42,630.815,639.614,-127.84,28.427,256.425,484.424,228.027,456.026,684.025,not5NN,NN_8
1,bas,ste,1,DMCC8760894,bas_ste_run1_DMCC8760894,NP,5,3,curve,4000,1,1014,1,1,773054,781866,782880,127840,43,645.214,654.026,655.04,28.427,256.425,484.424,228.027,456.026,684.025,LL5NP,NP_5
1,bas,ste,1,DMCC8760894,bas_ste_run1_DMCC8760894,NN,7,2,pledge,1600,1,1057,2,2,787466,796266,797323,127840,44,659.626,668.426,669.483,28.427,256.425,484.424,228.027,456.026,684.025,not5NN,NN_7
1,bas,ste,1,DMCC8760894,bas_ste_run1_DMCC8760894,NN,7,2,berry,2800,1,1290,2,2,799465,808265,809555,127840,45,671.625,680.425,681.715,28.427,256.425,484.424,228.027,456.026,684.025,not5NN,NN_7
1,bas,ste,2,DMCC8760894,bas_ste_run2_DMCC8760894,NP,5,3,north,4000,1,866,1,1,85078,93877,94743,54263,1,30.815,39.614,40.48,28.415,256.414,484.412,228.029,456.027,684.026,LL5NP,NP_5
1,bas,ste,2,DMCC8760894,bas_ste_run2_DMCC8760894,NP,5,3,ransom,4000,1,939,1,1,99477,108276,109215,54263,2,45.214,54.013,54.952,28.415,256.414,484.412,228.029,456.027,684.026,LL5NP,NP_5
1,bas,ste,2,DMCC8760894,bas_ste_run2_DMCC8760894,NN,5,2,chin,2800,1,1343,2,2,113876,122675,124018,54263,3,59.613,68.412,69.755,28.415,256.414,484.412,228.029,456.027,684.026,LL5NN,NN_5
1,bas,ste,2,DMCC8760894,bas_ste_run2_DMCC8760894,NN,6,1,whale,2800,1,1029,2,2,127075,135875,136904,54263,4,72.812,81.612,82.641,28.415,256.414,484.412,228.029,456.027,684.026,not5NN,NN_6
1,bas,ste,2,DMCC8760894,bas_ste_run2_DMCC8760894,NN,8,2,cotton,1600,1,1404,2,2,140274,149074,150478,54263,5,86.011,94.811,96.215,28.415,256.414,484.412,228.029,456.027,684.026,not5NN,NN_8
1,bas,ste,2,DMCC8760894,bas_ste_run2_DMCC8760894,NP,5,3,wheel,2800,1,1130,1,1,152273,161073,162203,54263,6,98.01,106.81,107.94,28.415,256.414,484.412,228.029,456.027,684.026,LL5NP,NP_5
1,bas,ste,2,DMCC8760894,bas_ste_run2_DMCC8760894,RN,5,1,cabin,1600,1,1328,2,2,165473,174272,175600,54263,7,111.21,120.009,121.337,28.415,256.414,484.412,228.029,456.027,684.026,LL5RN,RN_5
1,bas,ste,2,DMCC8760894,bas_ste_run2_DMCC8760894,NN,5,2,hatch,1600,1,897,2,2,177472,186271,187168,54263,8,123.209,132.008,132.905,28.415,256.414,484.412,228.029,456.027,684.026,LL5NN,NN_5
1,bas,ste,2,DMCC8760894,bas_ste_run2_DMCC8760894,NN,7,1,flame,1600,1,1030,2,2,189471,198270,199300,54263,9,135.208,144.007,145.037,28.415,256.414,484.412,228.029,456.027,684.026,not5NN,NN_7
1,bas,ste,2,DMCC8760894,bas_ste_run2_DMCC8760894,NP,6,1,dollar,4000,1,993,1,1,201470,210270,211263,54263,10,147.207,156.007,157,28.415,256.414,484.412,228.029,456.027,684.026,not5NP,NP_6
1,bas,ste,2,DMCC8760894,bas_ste_run2_DMCC8760894,NP,8,2,exam,1600,0,1413,2,1,215883,224682,226095,54263,11,161.62,170.419,171.832,28.415,256.414,484.412,228.029,456.027,684.026,not5NP,NP_8
1,bas,ste,2,DMCC8760894,bas_ste_run2_DMCC8760894,NN,8,2,lesson,4000,1,1532,2,2,227882,236681,238213,54263,12,173.619,182.418,183.95,28.415,256.414,484.412,228.029,456.027,684.026,not5NN,NN_8
1,bas,ste,2,DMCC8760894,bas_ste_run2_DMCC8760894,NP,7,1,teeth,2800,1,1111,1,1,242281,251080,252191,54263,13,188.018,196.817,197.928,28.415,256.414,484.412,228.029,456.027,684.026,not5NP,NP_7
1,bas,ste,2,DMCC8760894,bas_ste_run2_DMCC8760894,NP,8,2,kids,2800,1,1626,1,1,255480,264280,265906,54263,14,201.217,210.017,211.643,28.415,256.414,484.412,228.029,456.027,684.026,not5NP,NP_8
1,bas,ste,2,DMCC8760894,bas_ste_run2_DMCC8760894,RN,7,1,jars,4000,1,1836,2,2,268679,277479,279315,54263,15,214.416,223.216,225.052,28.415,256.414,484.412,228.029,456.027,684.026,not5RN,RN_7
1,bas,ste,2,DMCC8760894,bas_ste_run2_DMCC8760894,NP,5,3,harp,4000,1,1096,1,1,313076,321876,322972,54263,16,258.813,267.613,268.709,28.415,256.414,484.412,228.029,456.027,684.026,LL5NP,NP_5
1,bas,ste,2,DMCC8760894,bas_ste_run2_DMCC8760894,NN,8,2,sled,2800,1,1814,2,2,327476,336275,338089,54263,17,273.213,282.012,283.826,28.415,256.414,484.412,228.029,456.027,684.026,not5NN,NN_8
1,bas,ste,2,DMCC8760894,bas_ste_run2_DMCC8760894,RN,8,1,house,2800,0,0,,2,340675,349474,0,54263,18,286.412,295.211,-54.263,28.415,256.414,484.412,228.029,456.027,684.026,not5RN,RN_8
1,bas,ste,2,DMCC8760894,bas_ste_run2_DMCC8760894,NP,5,3,store,1600,1,863,1,1,353874,362673,363536,54263,19,299.611,308.41,309.273,28.415,256.414,484.412,228.029,456.027,684.026,LL5NP,NP_5
1,bas,ste,2,DMCC8760894,bas_ste_run2_DMCC8760894,RN,5,1,soil,1600,0,1586,1,2,365873,374672,376258,54263,20,311.61,320.409,321.995,28.415,256.414,484.412,228.029,456.027,684.026,LL5RN,RN_5
1,bas,ste,2,DMCC8760894,bas_ste_run2_DMCC8760894,NN,6,1,zebra,4000,1,1068,2,2,377872,386672,387740,54263,21,323.609,332.409,333.477,28.415,256.414,484.412,228.029,456.027,684.026,not5NN,NN_6
1,bas,ste,2,DMCC8760894,bas_ste_run2_DMCC8760894,NP,8,2,action,4000,0,991,2,1,392271,401071,402062,54263,22,338.008,346.808,347.799,28.415,256.414,484.412,228.029,456.027,684.026,not5NP,NP_8
1,bas,ste,2,DMCC8760894,bas_ste_run2_DMCC8760894,NN,7,1,poison,4000,1,872,2,2,406670,415470,416342,54263,23,352.407,361.207,362.079,28.415,256.414,484.412,228.029,456.027,684.026,not5NN,NN_7
1,bas,ste,2,DMCC8760894,bas_ste_run2_DMCC8760894,NN,5,2,heaven,1600,1,1009,2,2,421083,429882,430891,54263,24,366.82,375.619,376.628,28.415,256.414,484.412,228.029,456.027,684.026,LL5NN,NN_5
1,bas,ste,2,DMCC8760894,bas_ste_run2_DMCC8760894,NP,8,2,text,1600,0,1136,2,1,433082,441882,443018,54263,25,378.819,387.619,388.755,28.415,256.414,484.412,228.029,456.027,684.026,not5NP,NP_8
1,bas,ste,2,DMCC8760894,bas_ste_run2_DMCC8760894,NP,5,3,others,2800,1,1418,1,1,445081,453881,455299,54263,26,390.818,399.618,401.036,28.415,256.414,484.412,228.029,456.027,684.026,LL5NP,NP_5
1,bas,ste,2,DMCC8760894,bas_ste_run2_DMCC8760894,NP,7,2,crime,2800,1,860,1,1,458280,467080,467940,54263,27,404.017,412.817,413.677,28.415,256.414,484.412,228.029,456.027,684.026,not5NP,NP_7
1,bas,ste,2,DMCC8760894,bas_ste_run2_DMCC8760894,NN,5,2,barber,1600,1,1433,2,2,471480,480279,481712,54263,28,417.217,426.016,427.449,28.415,256.414,484.412,228.029,456.027,684.026,LL5NN,NN_5
1,bas,ste,2,DMCC8760894,bas_ste_run2_DMCC8760894,NN,8,2,steel,2800,1,879,2,2,483479,492278,493157,54263,29,429.216,438.015,438.894,28.415,256.414,484.412,228.029,456.027,684.026,not5NN,NN_8
1,bas,ste,2,DMCC8760894,bas_ste_run2_DMCC8760894,NP,7,2,cherry,4000,0,987,2,1,496678,505477,506464,54263,30,442.415,451.214,452.201,28.415,256.414,484.412,228.029,456.027,684.026,not5NP,NP_7
1,bas,ste,2,DMCC8760894,bas_ste_run2_DMCC8760894,NN,7,2,book,1600,1,875,2,2,541075,549875,550750,54263,31,486.812,495.612,496.487,28.415,256.414,484.412,228.029,456.027,684.026,not5NN,NN_7
1,bas,ste,2,DMCC8760894,bas_ste_run2_DMCC8760894,NP,7,1,photo,1600,1,1073,1,1,553074,561874,562947,54263,32,498.811,507.611,508.684,28.415,256.414,484.412,228.029,456.027,684.026,not5NP,NP_7
1,bas,ste,2,DMCC8760894,bas_ste_run2_DMCC8760894,NP,6,1,profit,2800,1,852,1,1,565074,573873,574725,54263,33,510.811,519.61,520.462,28.415,256.414,484.412,228.029,456.027,684.026,not5NP,NP_6
1,bas,ste,2,DMCC8760894,bas_ste_run2_DMCC8760894,NN,7,2,word,4000,1,1476,2,2,578273,587072,588548,54263,34,524.01,532.809,534.285,28.415,256.414,484.412,228.029,456.027,684.026,not5NN,NN_7
1,bas,ste,2,DMCC8760894,bas_ste_run2_DMCC8760894,NP,8,3,paper,1600,0,1066,2,1,592672,601471,602537,54263,35,538.409,547.208,548.274,28.415,256.414,484.412,228.029,456.027,684.026,not5NP,NP_8
1,bas,ste,2,DMCC8760894,bas_ste_run2_DMCC8760894,NP,8,3,pony,2800,0,779,2,1,604671,613470,614249,54263,36,550.408,559.207,559.986,28.415,256.414,484.412,228.029,456.027,684.026,not5NP,NP_8
1,bas,ste,2,DMCC8760894,bas_ste_run2_DMCC8760894,NP,5,3,fluid,1600,0,0,,1,617870,626683,0,54263,37,563.607,572.42,-54.263,28.415,256.414,484.412,228.029,456.027,684.026,LL5NP,NP_5
1,bas,ste,2,DMCC8760894,bas_ste_run2_DMCC8760894,NN,8,1,church,4000,0,0,,2,629883,638682,0,54263,38,575.62,584.419,-54.263,28.415,256.414,484.412,228.029,456.027,684.026,not5NN,NN_8
1,bas,ste,2,DMCC8760894,bas_ste_run2_DMCC8760894,NN,5,2,story,2800,1,893,2,2,644282,653081,653974,54263,39,590.019,598.818,599.711,28.415,256.414,484.412,228.029,456.027,684.026,LL5NN,NN_5
1,bas,ste,2,DMCC8760894,bas_ste_run2_DMCC8760894,NP,5,3,yard,4000,0,0,,1,657481,666280,0,54263,40,603.218,612.017,-54.263,28.415,256.414,484.412,228.029,456.027,684.026,LL5NP,NP_5
1,bas,ste,2,DMCC8760894,bas_ste_run2_DMCC8760894,RN,5,1,owner,2800,0,0,,2,671880,680679,0,54263,41,617.617,626.416,-54.263,28.415,256.414,484.412,228.029,456.027,684.026,LL5RN,RN_5
1,bas,ste,2,DMCC8760894,bas_ste_run2_DMCC8760894,NP,5,3,honey,2800,1,1618,1,1,685079,693879,695497,54263,42,630.816,639.616,641.234,28.415,256.414,484.412,228.029,456.027,684.026,LL5NP,NP_5
1,bas,ste,2,DMCC8760894,bas_ste_run2_DMCC8760894,NN,6,1,cows,1600,1,969,2,2,698278,707078,708047,54263,43,644.015,652.815,653.784,28.415,256.414,484.412,228.029,456.027,684.026,not5NN,NN_6
1,bas,ste,2,DMCC8760894,bas_ste_run2_DMCC8760894,NP,8,3,pilot,4000,1,1132,1,1,710278,719077,720209,54263,44,656.015,664.814,665.946,28.415,256.414,484.412,228.029,456.027,684.026,not5NP,NP_8
1,bas,ste,2,DMCC8760894,bas_ste_run2_DMCC8760894,NN,5,2,train,4000,0,0,,2,724677,733476,0,54263,45,670.414,679.213,-54.263,28.415,256.414,484.412,228.029,456.027,684.026,LL5NN,NN_5
1,pro,ste,1,DMCC8760894,pro_ste_run1_DMCC8760894,NN,2,2,vision,2800,1,1269,2,2,141114,149914,151183,110294,1,30.82,39.62,40.889,28.42,256.416,484.412,228.03,456.026,684.022,not5NN,NN_2
1,pro,ste,1,DMCC8760894,pro_ste_run1_DMCC8760894,NP,5,3,park,2800,1,1011,1,1,154314,163114,164125,110294,2,44.02,52.82,53.831,28.42,256.416,484.412,228.03,456.026,684.022,LL5NP,NP_5
1,pro,ste,1,DMCC8760894,pro_ste_run1_DMCC8760894,NN,4,1,idea,1600,1,894,2,2,167514,176314,177208,110294,3,57.22,66.02,66.914,28.42,256.416,484.412,228.03,456.026,684.022,not5NN,NN_4
1,pro,ste,1,DMCC8760894,pro_ste_run1_DMCC8760894,NP,5,3,boiler,4000,0,0,,1,179514,188313,0,110294,4,69.22,78.019,-110.294,28.42,256.416,484.412,228.03,456.026,684.022,LL5NP,NP_5
1,pro,ste,1,DMCC8760894,pro_ste_run1_DMCC8760894,NP,3,2,ranch,1600,1,1146,1,1,193913,202713,203859,110294,5,83.619,92.419,93.565,28.42,256.416,484.412,228.03,456.026,684.022,not5NP,NP_3
1,pro,ste,1,DMCC8760894,pro_ste_run1_DMCC8760894,NN,5,2,deed,4000,1,740,2,2,205913,214713,215453,110294,6,95.619,104.419,105.159,28.42,256.416,484.412,228.03,456.026,684.022,LL5NN,NN_5
1,pro,ste,1,DMCC8760894,pro_ste_run1_DMCC8760894,NN,2,2,access,1600,1,919,2,2,220313,229113,230032,110294,7,110.019,118.819,119.738,28.42,256.416,484.412,228.03,456.026,684.022,not5NN,NN_2
1,pro,ste,1,DMCC8760894,pro_ste_run1_DMCC8760894,NP,4,1,ways,2800,1,1137,1,1,232313,241113,242250,110294,8,122.019,130.819,131.956,28.42,256.416,484.412,228.03,456.026,684.022,not5NP,NP_4
1,pro,ste,1,DMCC8760894,pro_ste_run1_DMCC8760894,RN,5,1,keeper,4000,0,1175,1,2,245512,254312,255487,110294,9,135.218,144.018,145.193,28.42,256.416,484.412,228.03,456.026,684.022,LL5RN,RN_5
1,pro,ste,1,DMCC8760894,pro_ste_run1_DMCC8760894,NN,5,2,item,1600,1,926,2,2,259912,268712,269638,110294,10,149.618,158.418,159.344,28.42,256.416,484.412,228.03,456.026,684.022,LL5NN,NN_5
1,pro,ste,1,DMCC8760894,pro_ste_run1_DMCC8760894,NN,3,1,hope,4000,1,1427,2,2,271912,280712,282139,110294,11,161.618,170.418,171.845,28.42,256.416,484.412,228.03,456.026,684.022,not5NN,NN_3
1,pro,ste,1,DMCC8760894,pro_ste_run1_DMCC8760894,NP,5,3,parent,1600,1,920,1,1,286312,295112,296032,110294,12,176.018,184.818,185.738,28.42,256.416,484.412,228.03,456.026,684.022,LL5NP,NP_5
1,pro,ste,1,DMCC8760894,pro_ste_run1_DMCC8760894,NP,2,2,dryer,2800,1,773,1,1,298312,307111,307884,110294,13,188.018,196.817,197.59,28.42,256.416,484.412,228.03,456.026,684.022,not5NP,NP_2
1,pro,ste,1,DMCC8760894,pro_ste_run1_DMCC8760894,NP,2,2,suit,4000,1,1073,1,1,311511,320311,321384,110294,14,201.217,210.017,211.09,28.42,256.416,484.412,228.03,456.026,684.022,not5NP,NP_2
1,pro,ste,1,DMCC8760894,pro_ste_run1_DMCC8760894,NP,3,2,nail,2800,1,682,1,1,325911,334711,335393,110294,15,215.617,224.417,225.099,28.42,256.416,484.412,228.03,456.026,684.022,not5NP,NP_3
1,pro,ste,1,DMCC8760894,pro_ste_run1_DMCC8760894,NP,5,3,menu,2800,1,805,1,1,369110,377910,378715,110294,16,258.816,267.616,268.421,28.42,256.416,484.412,228.03,456.026,684.022,LL5NP,NP_5
1,pro,ste,1,DMCC8760894,pro_ste_run1_DMCC8760894,NN,5,2,rage,1600,1,754,2,2,382310,391110,391864,110294,17,272.016,280.816,281.57,28.42,256.416,484.412,228.03,456.026,684.022,LL5NN,NN_5
1,pro,ste,1,DMCC8760894,pro_ste_run1_DMCC8760894,NN,2,2,laser,4000,1,793,2,2,394310,403110,403903,110294,18,284.016,292.816,293.609,28.42,256.416,484.412,228.03,456.026,684.022,not5NN,NN_2
1,pro,ste,1,DMCC8760894,pro_ste_run1_DMCC8760894,NP,2,3,wool,4000,1,1394,1,1,408710,417509,418903,110294,19,298.416,307.215,308.609,28.42,256.416,484.412,228.03,456.026,684.022,not5NP,NP_2
1,pro,ste,1,DMCC8760894,pro_ste_run1_DMCC8760894,NP,5,3,color,4000,1,824,1,1,423109,431909,432733,110294,20,312.815,321.615,322.439,28.42,256.416,484.412,228.03,456.026,684.022,LL5NP,NP_5
1,pro,ste,1,DMCC8760894,pro_ste_run1_DMCC8760894,NP,3,2,saint,2800,1,1020,1,1,437509,446309,447329,110294,21,327.215,336.015,337.035,28.42,256.416,484.412,228.03,456.026,684.022,not5NP,NP_3
1,pro,ste,1,DMCC8760894,pro_ste_run1_DMCC8760894,NN,4,1,critic,1600,1,1168,2,2,450709,459509,460677,110294,22,340.415,349.215,350.383,28.42,256.416,484.412,228.03,456.026,684.022,not5NN,NN_4
1,pro,ste,1,DMCC8760894,pro_ste_run1_DMCC8760894,NN,5,2,roses,2800,1,886,2,2,462709,471508,472394,110294,23,352.415,361.214,362.1,28.42,256.416,484.412,228.03,456.026,684.022,LL5NN,NN_5
1,pro,ste,1,DMCC8760894,pro_ste_run1_DMCC8760894,NN,3,1,rumor,1600,1,985,2,2,475908,484708,485693,110294,24,365.614,374.414,375.399,28.42,256.416,484.412,228.03,456.026,684.022,not5NN,NN_3
1,pro,ste,1,DMCC8760894,pro_ste_run1_DMCC8760894,NP,3,2,heel,4000,0,1345,2,1,487908,496708,498053,110294,25,377.614,386.414,387.759,28.42,256.416,484.412,228.03,456.026,684.022,not5NP,NP_3
1,pro,ste,1,DMCC8760894,pro_ste_run1_DMCC8760894,RN,5,1,shell,2800,1,1133,2,2,502308,511108,512241,110294,26,392.014,400.814,401.947,28.42,256.416,484.412,228.03,456.026,684.022,LL5RN,RN_5
1,pro,ste,1,DMCC8760894,pro_ste_run1_DMCC8760894,NP,5,3,review,4000,1,1058,1,1,515508,524308,525366,110294,27,405.214,414.014,415.072,28.42,256.416,484.412,228.03,456.026,684.022,LL5NP,NP_5
1,pro,ste,1,DMCC8760894,pro_ste_run1_DMCC8760894,NN,2,2,rash,1600,1,1078,2,2,529907,538707,539785,110294,28,419.613,428.413,429.491,28.42,256.416,484.412,228.03,456.026,684.022,not5NN,NN_2
1,pro,ste,1,DMCC8760894,pro_ste_run1_DMCC8760894,NP,2,3,chip,2800,1,990,1,1,541907,550707,551697,110294,29,431.613,440.413,441.403,28.42,256.416,484.412,228.03,456.026,684.022,not5NP,NP_2
1,pro,ste,1,DMCC8760894,pro_ste_run1_DMCC8760894,NP,2,3,parade,1600,1,918,1,1,555107,563907,564825,110294,30,444.813,453.613,454.531,28.42,256.416,484.412,228.03,456.026,684.022,not5NP,NP_2
1,pro,ste,1,DMCC8760894,pro_ste_run1_DMCC8760894,NP,4,1,verse,4000,1,1117,1,1,597106,605906,607023,110294,31,486.812,495.612,496.729,28.42,256.416,484.412,228.03,456.026,684.022,not5NP,NP_4
1,pro,ste,1,DMCC8760894,pro_ste_run1_DMCC8760894,NN,3,2,torch,2800,1,1200,2,2,611506,620306,621506,110294,32,501.212,510.012,511.212,28.42,256.416,484.412,228.03,456.026,684.022,not5NN,NN_3
1,pro,ste,1,DMCC8760894,pro_ste_run1_DMCC8760894,NN,5,2,deal,1600,1,1445,2,2,624706,633506,634951,110294,33,514.412,523.212,524.657,28.42,256.416,484.412,228.03,456.026,684.022,LL5NN,NN_5
1,pro,ste,1,DMCC8760894,pro_ste_run1_DMCC8760894,NP,5,3,clay,4000,1,1272,1,1,636706,645505,646777,110294,34,526.412,535.211,536.483,28.42,256.416,484.412,228.03,456.026,684.022,LL5NP,NP_5
1,pro,ste,1,DMCC8760894,pro_ste_run1_DMCC8760894,NP,5,3,forest,2800,1,860,1,1,651105,659905,660765,110294,35,540.811,549.611,550.471,28.42,256.416,484.412,228.03,456.026,684.022,LL5NP,NP_5
1,pro,ste,1,DMCC8760894,pro_ste_run1_DMCC8760894,NP,3,1,charge,2800,1,1009,1,1,664305,673105,674114,110294,36,554.011,562.811,563.82,28.42,256.416,484.412,228.03,456.026,684.022,not5NP,NP_3
1,pro,ste,1,DMCC8760894,pro_ste_run1_DMCC8760894,NN,2,2,moose,2800,0,0,,2,677505,686305,0,110294,37,567.211,576.011,-110.294,28.42,256.416,484.412,228.03,456.026,684.022,not5NN,NN_2
1,pro,ste,1,DMCC8760894,pro_ste_run1_DMCC8760894,RN,5,1,chest,4000,1,941,2,2,690705,699505,700446,110294,38,580.411,589.211,590.152,28.42,256.416,484.412,228.03,456.026,684.022,LL5RN,RN_5
1,pro,ste,1,DMCC8760894,pro_ste_run1_DMCC8760894,NP,2,2,paste,1600,1,995,1,1,705104,713904,714899,110294,39,594.81,603.61,604.605,28.42,256.416,484.412,228.03,456.026,684.022,not5NP,NP_2
1,pro,ste,1,DMCC8760894,pro_ste_run1_DMCC8760894,NN,3,2,donor,4000,1,913,2,2,717104,725904,726817,110294,40,606.81,615.61,616.523,28.42,256.416,484.412,228.03,456.026,684.022,not5NN,NN_3
1,pro,ste,1,DMCC8760894,pro_ste_run1_DMCC8760894,NP,5,3,advice,1600,1,1425,1,1,731504,740304,741729,110294,41,621.21,630.01,631.435,28.42,256.416,484.412,228.03,456.026,684.022,LL5NP,NP_5
1,pro,ste,1,DMCC8760894,pro_ste_run1_DMCC8760894,NN,2,2,work,1600,0,0,,2,743504,752304,0,110294,42,633.21,642.01,-110.294,28.42,256.416,484.412,228.03,456.026,684.022,not5NN,NN_2
1,pro,ste,1,DMCC8760894,pro_ste_run1_DMCC8760894,RN,2,1,bags,1600,1,814,2,2,755504,764303,765117,110294,43,645.21,654.009,654.823,28.42,256.416,484.412,228.03,456.026,684.022,not5RN,RN_2
1,pro,ste,1,DMCC8760894,pro_ste_run1_DMCC8760894,NN,5,2,group,2800,1,982,2,2,767503,776303,777285,110294,44,657.209,666.009,666.991,28.42,256.416,484.412,228.03,456.026,684.022,LL5NN,NN_5
1,pro,ste,1,DMCC8760894,pro_ste_run1_DMCC8760894,NP,2,2,guys,4000,1,977,1,1,780703,789503,790480,110294,45,670.409,679.209,680.186,28.42,256.416,484.412,228.03,456.026,684.022,not5NP,NP_2
1,pro,ste,2,DMCC8760894,pro_ste_run2_DMCC8760894,NN,4,1,campus,2800,1,769,2,2,67279,76079,76848,36468,1,30.811,39.611,40.38,28.411,256.407,484.403,228.021,456.017,684.013,not5NN,NN_4
1,pro,ste,2,DMCC8760894,pro_ste_run2_DMCC8760894,NP,5,3,snap,4000,1,766,1,1,80479,89279,90045,36468,2,44.011,52.811,53.577,28.411,256.407,484.403,228.021,456.017,684.013,LL5NP,NP_5
1,pro,ste,2,DMCC8760894,pro_ste_run2_DMCC8760894,NP,4,1,belief,4000,1,859,1,1,94879,103679,104538,36468,3,58.411,67.211,68.07,28.411,256.407,484.403,228.021,456.017,684.013,not5NP,NP_4
1,pro,ste,2,DMCC8760894,pro_ste_run2_DMCC8760894,NP,3,1,drip,2800,1,729,1,1,109279,118078,118807,36468,4,72.811,81.61,82.339,28.411,256.407,484.403,228.021,456.017,684.013,not5NP,NP_3
1,pro,ste,2,DMCC8760894,pro_ste_run2_DMCC8760894,NP,2,2,bottle,4000,1,709,1,1,122478,131278,131987,36468,5,86.01,94.81,95.519,28.411,256.407,484.403,228.021,456.017,684.013,not5NP,NP_2
1,pro,ste,2,DMCC8760894,pro_ste_run2_DMCC8760894,RN,5,1,level,1600,1,1062,2,2,136878,145678,146740,36468,6,100.41,109.21,110.272,28.411,256.407,484.403,228.021,456.017,684.013,LL5RN,RN_5
1,pro,ste,2,DMCC8760894,pro_ste_run2_DMCC8760894,NN,2,2,spice,1600,1,1110,2,2,148878,157678,158788,36468,7,112.41,121.21,122.32,28.411,256.407,484.403,228.021,456.017,684.013,not5NN,NN_2
1,pro,ste,2,DMCC8760894,pro_ste_run2_DMCC8760894,NN,2,2,coal,2800,1,819,2,2,160878,169677,170496,36468,8,124.41,133.209,134.028,28.411,256.407,484.403,228.021,456.017,684.013,not5NN,NN_2
1,pro,ste,2,DMCC8760894,pro_ste_run2_DMCC8760894,NN,3,1,film,1600,1,974,2,2,174077,182877,183851,36468,9,137.609,146.409,147.383,28.411,256.407,484.403,228.021,456.017,684.013,not5NN,NN_3
1,pro,ste,2,DMCC8760894,pro_ste_run2_DMCC8760894,RN,3,1,singer,4000,1,989,2,2,186077,194877,195866,36468,10,149.609,158.409,159.398,28.411,256.407,484.403,228.021,456.017,684.013,not5RN,RN_3
1,pro,ste,2,DMCC8760894,pro_ste_run2_DMCC8760894,NN,5,2,herd,2800,1,895,2,2,200477,209277,210172,36468,11,164.009,172.809,173.704,28.411,256.407,484.403,228.021,456.017,684.013,LL5NN,NN_5
1,pro,ste,2,DMCC8760894,pro_ste_run2_DMCC8760894,NP,5,3,flight,2800,1,902,1,1,213677,222477,223379,36468,12,177.209,186.009,186.911,28.411,256.407,484.403,228.021,456.017,684.013,LL5NP,NP_5
1,pro,ste,2,DMCC8760894,pro_ste_run2_DMCC8760894,NP,2,2,quote,4000,1,1105,1,1,226876,235676,236781,36468,13,190.408,199.208,200.313,28.411,256.407,484.403,228.021,456.017,684.013,not5NP,NP_2
1,pro,ste,2,DMCC8760894,pro_ste_run2_DMCC8760894,NN,5,2,fury,1600,1,1100,2,2,241276,250076,251176,36468,14,204.808,213.608,214.708,28.411,256.407,484.403,228.021,456.017,684.013,LL5NN,NN_5
1,pro,ste,2,DMCC8760894,pro_ste_run2_DMCC8760894,NP,5,3,stroke,1600,1,840,1,1,253276,262076,262916,36468,15,216.808,225.608,226.448,28.411,256.407,484.403,228.021,456.017,684.013,LL5NP,NP_5
1,pro,ste,2,DMCC8760894,pro_ste_run2_DMCC8760894,NP,3,2,gold,2800,0,1291,2,1,295275,304075,305366,36468,16,258.807,267.607,268.898,28.411,256.407,484.403,228.021,456.017,684.013,not5NP,NP_3
1,pro,ste,2,DMCC8760894,pro_ste_run2_DMCC8760894,NP,3,2,sailor,4000,1,972,1,1,308475,317275,318247,36468,17,272.007,280.807,281.779,28.411,256.407,484.403,228.021,456.017,684.013,not5NP,NP_3
1,pro,ste,2,DMCC8760894,pro_ste_run2_DMCC8760894,NP,5,3,thing,1600,1,895,1,1,322875,331675,332570,36468,18,286.407,295.207,296.102,28.411,256.407,484.403,228.021,456.017,684.013,LL5NP,NP_5
1,pro,ste,2,DMCC8760894,pro_ste_run2_DMCC8760894,NN,5,2,kids,2800,1,962,2,2,334875,343674,344636,36468,19,298.407,307.206,308.168,28.411,256.407,484.403,228.021,456.017,684.013,LL5NN,NN_5
1,pro,ste,2,DMCC8760894,pro_ste_run2_DMCC8760894,RN,2,1,onion,4000,1,1183,2,2,348074,356874,358057,36468,20,311.606,320.406,321.589,28.411,256.407,484.403,228.021,456.017,684.013,not5RN,RN_2
1,pro,ste,2,DMCC8760894,pro_ste_run2_DMCC8760894,NP,5,3,grill,2800,1,907,1,1,362474,371274,372181,36468,21,326.006,334.806,335.713,28.411,256.407,484.403,228.021,456.017,684.013,LL5NP,NP_5
1,pro,ste,2,DMCC8760894,pro_ste_run2_DMCC8760894,NN,4,1,barber,1600,1,917,2,2,375674,384474,385391,36468,22,339.206,348.006,348.923,28.411,256.407,484.403,228.021,456.017,684.013,not5NN,NN_4
1,pro,ste,2,DMCC8760894,pro_ste_run2_DMCC8760894,NN,2,2,flaw,4000,1,1212,2,2,387674,396474,397686,36468,23,351.206,360.006,361.218,28.411,256.407,484.403,228.021,456.017,684.013,not5NN,NN_2
1,pro,ste,2,DMCC8760894,pro_ste_run2_DMCC8760894,NN,3,1,grain,1600,1,1530,2,2,402073,410873,412403,36468,24,365.605,374.405,375.935,28.411,256.407,484.403,228.021,456.017,684.013,not5NN,NN_3
1,pro,ste,2,DMCC8760894,pro_ste_run2_DMCC8760894,NP,2,2,nerve,1600,1,824,1,1,414073,422873,423697,36468,25,377.605,386.405,387.229,28.411,256.407,484.403,228.021,456.017,684.013,not5NP,NP_2
1,pro,ste,2,DMCC8760894,pro_ste_run2_DMCC8760894,NP,5,3,class,4000,1,1213,1,1,426073,434873,436086,36468,26,389.605,398.405,399.618,28.411,256.407,484.403,228.021,456.017,684.013,LL5NP,NP_5
1,pro,ste,2,DMCC8760894,pro_ste_run2_DMCC8760894,NN,2,2,tally,2800,1,986,2,2,440473,449273,450259,36468,27,404.005,412.805,413.791,28.411,256.407,484.403,228.021,456.017,684.013,not5NN,NN_2
1,pro,ste,2,DMCC8760894,pro_ste_run2_DMCC8760894,NP,2,2,photo,2800,1,1087,1,1,453673,462472,463559,36468,28,417.205,426.004,427.091,28.411,256.407,484.403,228.021,456.017,684.013,not5NP,NP_2
1,pro,ste,2,DMCC8760894,pro_ste_run2_DMCC8760894,NN,5,2,zebra,4000,1,1439,2,2,466872,475672,477111,36468,29,430.404,439.204,440.643,28.411,256.407,484.403,228.021,456.017,684.013,LL5NN,NN_5
1,pro,ste,2,DMCC8760894,pro_ste_run2_DMCC8760894,RN,5,1,pupil,1600,1,776,2,2,481272,490072,490848,36468,30,444.804,453.604,454.38,28.411,256.407,484.403,228.021,456.017,684.013,LL5RN,RN_5
1,pro,ste,2,DMCC8760894,pro_ste_run2_DMCC8760894,NN,2,1,list,2800,1,1096,2,2,523271,532071,533167,36468,31,486.803,495.603,496.699,28.411,256.407,484.403,228.021,456.017,684.013,not5NN,NN_2
1,pro,ste,2,DMCC8760894,pro_ste_run2_DMCC8760894,NP,3,1,tissue,1600,1,1601,1,1,536471,545271,546872,36468,32,500.003,508.803,510.404,28.411,256.407,484.403,228.021,456.017,684.013,not5NP,NP_3
1,pro,ste,2,DMCC8760894,pro_ste_run2_DMCC8760894,NP,2,3,point,1600,1,972,1,1,548471,557271,558243,36468,33,512.003,520.803,521.775,28.411,256.407,484.403,228.021,456.017,684.013,not5NP,NP_2
1,pro,ste,2,DMCC8760894,pro_ste_run2_DMCC8760894,NN,5,2,output,2800,1,1543,2,2,560471,569271,570814,36468,34,524.003,532.803,534.346,28.411,256.407,484.403,228.021,456.017,684.013,LL5NN,NN_5
1,pro,ste,2,DMCC8760894,pro_ste_run2_DMCC8760894,NP,5,3,finger,4000,1,1009,1,1,573670,582470,583479,36468,35,537.202,546.002,547.011,28.411,256.407,484.403,228.021,456.017,684.013,LL5NP,NP_5
1,pro,ste,2,DMCC8760894,pro_ste_run2_DMCC8760894,NP,2,3,grace,4000,0,0,,1,588070,596870,0,36468,36,551.602,560.402,-36.468,28.411,256.407,484.403,228.021,456.017,684.013,not5NP,NP_2
1,pro,ste,2,DMCC8760894,pro_ste_run2_DMCC8760894,NN,3,2,filter,1600,0,0,,2,602470,611270,0,36468,37,566.002,574.802,-36.468,28.411,256.407,484.403,228.021,456.017,684.013,not5NN,NN_3
1,pro,ste,2,DMCC8760894,pro_ste_run2_DMCC8760894,NP,5,3,click,2800,1,1093,1,1,614470,623270,624363,36468,38,578.002,586.802,587.895,28.411,256.407,484.403,228.021,456.017,684.013,LL5NP,NP_5
1,pro,ste,2,DMCC8760894,pro_ste_run2_DMCC8760894,NN,3,2,cows,4000,1,1085,2,2,627669,636483,637568,36468,39,591.201,600.015,601.1,28.411,256.407,484.403,228.021,456.017,684.013,not5NN,NN_3
1,pro,ste,2,DMCC8760894,pro_ste_run2_DMCC8760894,RN,5,1,need,4000,0,0,,2,642083,650882,0,36468,40,605.615,614.414,-36.468,28.411,256.407,484.403,228.021,456.017,684.013,LL5RN,RN_5
1,pro,ste,2,DMCC8760894,pro_ste_run2_DMCC8760894,NP,5,3,void,1600,1,731,1,1,656482,665282,666013,36468,41,620.014,628.814,629.545,28.411,256.407,484.403,228.021,456.017,684.013,LL5NP,NP_5
1,pro,ste,2,DMCC8760894,pro_ste_run2_DMCC8760894,NP,2,3,talent,1600,1,731,1,1,668482,677282,678013,36468,42,632.014,640.814,641.545,28.411,256.407,484.403,228.021,456.017,684.013,not5NP,NP_2
1,pro,ste,2,DMCC8760894,pro_ste_run2_DMCC8760894,NP,4,1,clown,2800,1,758,1,1,680482,689282,690040,36468,43,644.014,652.814,653.572,28.411,256.407,484.403,228.021,456.017,684.013,not5NP,NP_4
1,pro,ste,2,DMCC8760894,pro_ste_run2_DMCC8760894,NN,5,2,signal,4000,1,1097,2,2,693682,702482,703579,36468,44,657.214,666.014,667.111,28.411,256.407,484.403,228.021,456.017,684.013,LL5NN,NN_5
1,pro,ste,2,DMCC8760894,pro_ste_run2_DMCC8760894,NN,4,1,grip,2800,1,1311,2,2,708081,716881,718192,36468,45,671.613,680.413,681.724,28.411,256.407,484.403,228.021,456.017,684.013,not5NN,NN_4
1,rea,ste,1,DMCC8760894,rea_ste_run1_DMCC8760894,NP,8,2,brow,2800,1,771,1,1,123174,131974,132745,92361,1,30.813,39.613,40.384,28.413,256.411,484.409,228.025,456.023,684.021,not5NP,NP_8
1,rea,ste,1,DMCC8760894,rea_ste_run1_DMCC8760894,RN,5,2,jets,1600,1,1014,2,2,136374,145174,146188,92361,2,44.013,52.813,53.827,28.413,256.411,484.409,228.025,456.023,684.021,LL5RN,RN_5
1,rea,ste,1,DMCC8760894,rea_ste_run1_DMCC8760894,NP,5,3,touch,1600,1,1393,1,1,148374,157174,158567,92361,3,56.013,64.813,66.206,28.413,256.411,484.409,228.025,456.023,684.021,LL5NP,NP_5
1,rea,ste,1,DMCC8760894,rea_ste_run1_DMCC8760894,NP,5,3,pound,1600,1,748,1,1,160374,169173,169921,92361,4,68.013,76.812,77.56,28.413,256.411,484.409,228.025,456.023,684.021,LL5NP,NP_5
1,rea,ste,1,DMCC8760894,rea_ste_run1_DMCC8760894,RN,7,1,rivals,2800,1,1465,2,2,172373,181173,182638,92361,5,80.012,88.812,90.277,28.413,256.411,484.409,228.025,456.023,684.021,not5RN,RN_7
1,rea,ste,1,DMCC8760894,rea_ste_run1_DMCC8760894,NP,6,1,name,1600,1,1377,1,1,185573,194373,195750,92361,6,93.212,102.012,103.389,28.413,256.411,484.409,228.025,456.023,684.021,not5NP,NP_6
1,rea,ste,1,DMCC8760894,rea_ste_run1_DMCC8760894,NP,7,2,world,2800,1,788,1,1,197573,206373,207161,92361,7,105.212,114.012,114.8,28.413,256.411,484.409,228.025,456.023,684.021,not5NP,NP_7
1,rea,ste,1,DMCC8760894,rea_ste_run1_DMCC8760894,RN,8,2,marker,4000,1,1082,2,2,210773,219573,220655,92361,8,118.412,127.212,128.294,28.413,256.411,484.409,228.025,456.023,684.021,not5RN,RN_8
1,rea,ste,1,DMCC8760894,rea_ste_run1_DMCC8760894,NP,5,3,wife,2800,1,848,1,1,225173,233973,234821,92361,9,132.812,141.612,142.46,28.413,256.411,484.409,228.025,456.023,684.021,LL5NP,NP_5
1,rea,ste,1,DMCC8760894,rea_ste_run1_DMCC8760894,RN,5,2,paper,4000,0,1310,1,2,238373,247173,248483,92361,10,146.012,154.812,156.122,28.413,256.411,484.409,228.025,456.023,684.021,LL5RN,RN_5
1,rea,ste,1,DMCC8760894,rea_ste_run1_DMCC8760894,NN,5,1,chin,2800,1,738,2,2,252773,261573,262311,92361,11,160.412,169.212,169.95,28.413,256.411,484.409,228.025,456.023,684.021,LL5NN,NN_5
1,rea,ste,1,DMCC8760894,rea_ste_run1_DMCC8760894,NP,7,2,grill,4000,1,978,1,1,265973,274773,275751,92361,12,173.612,182.412,183.39,28.413,256.411,484.409,228.025,456.023,684.021,not5NP,NP_7
1,rea,ste,1,DMCC8760894,rea_ste_run1_DMCC8760894,RN,8,2,rhyme,4000,1,975,2,2,280373,289172,290147,92361,13,188.012,196.811,197.786,28.413,256.411,484.409,228.025,456.023,684.021,not5RN,RN_8
1,rea,ste,1,DMCC8760894,rea_ste_run1_DMCC8760894,NP,8,2,goods,4000,1,1223,1,1,294772,303572,304795,92361,14,202.411,211.211,212.434,28.413,256.411,484.409,228.025,456.023,684.021,not5NP,NP_8
1,rea,ste,1,DMCC8760894,rea_ste_run1_DMCC8760894,RN,6,1,reign,1600,0,1462,1,2,309172,317972,319434,92361,15,216.811,225.611,227.073,28.413,256.411,484.409,228.025,456.023,684.021,not5RN,RN_6
1,rea,ste,1,DMCC8760894,rea_ste_run1_DMCC8760894,NP,5,3,harbor,2800,1,926,1,1,351172,359972,360898,92361,16,258.811,267.611,268.537,28.413,256.411,484.409,228.025,456.023,684.021,LL5NP,NP_5
1,rea,ste,1,DMCC8760894,rea_ste_run1_DMCC8760894,RN,7,1,boat,4000,1,1326,2,2,364372,373172,374498,92361,17,272.011,280.811,282.137,28.413,256.411,484.409,228.025,456.023,684.021,not5RN,RN_7
1,rea,ste,1,DMCC8760894,rea_ste_run1_DMCC8760894,RN,8,2,hour,1600,1,924,2,2,378772,387572,388496,92361,18,286.411,295.211,296.135,28.413,256.411,484.409,228.025,456.023,684.021,not5RN,RN_8
1,rea,ste,1,DMCC8760894,rea_ste_run1_DMCC8760894,NP,8,3,tongue,1600,0,1021,2,1,390772,399571,400592,92361,19,298.411,307.21,308.231,28.413,256.411,484.409,228.025,456.023,684.021,not5NP,NP_8
1,rea,ste,1,DMCC8760894,rea_ste_run1_DMCC8760894,RN,6,1,beam,2800,1,1508,2,2,402771,411571,413079,92361,20,310.41,319.21,320.718,28.413,256.411,484.409,228.025,456.023,684.021,not5RN,RN_6
1,rea,ste,1,DMCC8760894,rea_ste_run1_DMCC8760894,NN,5,1,ruler,1600,0,0,,2,415971,424771,0,92361,21,323.61,332.41,-92.361,28.413,256.411,484.409,228.025,456.023,684.021,LL5NN,NN_5
1,rea,ste,1,DMCC8760894,rea_ste_run1_DMCC8760894,NP,5,3,dryer,4000,1,1049,1,1,427971,436771,437820,92361,22,335.61,344.41,345.459,28.413,256.411,484.409,228.025,456.023,684.021,LL5NP,NP_5
1,rea,ste,1,DMCC8760894,rea_ste_run1_DMCC8760894,RN,8,2,jazz,2800,1,1142,2,2,442371,451171,452313,92361,23,350.01,358.81,359.952,28.413,256.411,484.409,228.025,456.023,684.021,not5RN,RN_8
1,rea,ste,1,DMCC8760894,rea_ste_run1_DMCC8760894,RN,5,2,blaze,1600,1,1076,2,2,455571,464371,465447,92361,24,363.21,372.01,373.086,28.413,256.411,484.409,228.025,456.023,684.021,LL5RN,RN_5
1,rea,ste,1,DMCC8760894,rea_ste_run1_DMCC8760894,NP,8,3,visit,4000,0,908,2,1,467571,476371,477279,92361,25,375.21,384.01,384.918,28.413,256.411,484.409,228.025,456.023,684.021,not5NP,NP_8
1,rea,ste,1,DMCC8760894,rea_ste_run1_DMCC8760894,RN,5,2,ideals,2800,1,1713,2,2,481971,490771,492484,92361,26,389.61,398.41,400.123,28.413,256.411,484.409,228.025,456.023,684.021,LL5RN,RN_5
1,rea,ste,1,DMCC8760894,rea_ste_run1_DMCC8760894,NP,5,3,plate,1600,1,1358,1,1,495171,503971,505329,92361,27,402.81,411.61,412.968,28.413,256.411,484.409,228.025,456.023,684.021,LL5NP,NP_5
1,rea,ste,1,DMCC8760894,rea_ste_run1_DMCC8760894,NP,7,2,spark,4000,0,1551,2,1,507171,515970,517521,92361,28,414.81,423.609,425.16,28.413,256.411,484.409,228.025,456.023,684.021,not5NP,NP_7
1,rea,ste,1,DMCC8760894,rea_ste_run1_DMCC8760894,NP,8,3,males,4000,1,1270,1,1,521570,530370,531640,92361,29,429.209,438.009,439.279,28.413,256.411,484.409,228.025,456.023,684.021,not5NP,NP_8
1,rea,ste,1,DMCC8760894,rea_ste_run1_DMCC8760894,NP,7,2,setup,2800,0,1053,2,1,535970,544770,545823,92361,30,443.609,452.409,453.462,28.413,256.411,484.409,228.025,456.023,684.021,not5NP,NP_7
1,rea,ste,1,DMCC8760894,rea_ste_run1_DMCC8760894,NP,5,3,answer,2800,1,921,1,1,579170,587970,588891,92361,31,486.809,495.609,496.53,28.413,256.411,484.409,228.025,456.023,684.021,LL5NP,NP_5
1,rea,ste,1,DMCC8760894,rea_ste_run1_DMCC8760894,RN,5,2,hawk,2800,1,1115,2,2,592370,601170,602285,92361,32,500.009,508.809,509.924,28.413,256.411,484.409,228.025,456.023,684.021,LL5RN,RN_5
1,rea,ste,1,DMCC8760894,rea_ste_run1_DMCC8760894,NN,8,1,train,1600,1,1301,2,2,605570,614370,615671,92361,33,513.209,522.009,523.31,28.413,256.411,484.409,228.025,456.023,684.021,not5NN,NN_8
1,rea,ste,1,DMCC8760894,rea_ste_run1_DMCC8760894,RN,8,2,poppy,2800,1,1379,2,2,617570,626370,627749,92361,34,525.209,534.009,535.388,28.413,256.411,484.409,228.025,456.023,684.021,not5RN,RN_8
1,rea,ste,1,DMCC8760894,rea_ste_run1_DMCC8760894,RN,7,2,wave,1600,0,0,,2,630769,639569,0,92361,35,538.408,547.208,-92.361,28.413,256.411,484.409,228.025,456.023,684.021,not5RN,RN_7
1,rea,ste,1,DMCC8760894,rea_ste_run1_DMCC8760894,RN,8,2,days,2800,1,1314,2,2,642769,651569,652883,92361,36,550.408,559.208,560.522,28.413,256.411,484.409,228.025,456.023,684.021,not5RN,RN_8
1,rea,ste,1,DMCC8760894,rea_ste_run1_DMCC8760894,RN,7,2,need,4000,1,998,2,2,655969,664769,665767,92361,37,563.608,572.408,573.406,28.413,256.411,484.409,228.025,456.023,684.021,not5RN,RN_7
1,rea,ste,1,DMCC8760894,rea_ste_run1_DMCC8760894,NP,5,3,hose,4000,1,1126,1,1,670369,679169,680295,92361,38,578.008,586.808,587.934,28.413,256.411,484.409,228.025,456.023,684.021,LL5NP,NP_5
1,rea,ste,1,DMCC8760894,rea_ste_run1_DMCC8760894,RN,5,2,drip,1600,0,0,,2,684769,693569,0,92361,39,592.408,601.208,-92.361,28.413,256.411,484.409,228.025,456.023,684.021,LL5RN,RN_5
1,rea,ste,1,DMCC8760894,rea_ste_run1_DMCC8760894,NN,5,1,finger,2800,1,950,2,2,696769,705569,706519,92361,40,604.408,613.208,614.158,28.413,256.411,484.409,228.025,456.023,684.021,LL5NN,NN_5
1,rea,ste,1,DMCC8760894,rea_ste_run1_DMCC8760894,NP,8,2,charge,4000,0,1057,2,1,709969,718769,719826,92361,41,617.608,626.408,627.465,28.413,256.411,484.409,228.025,456.023,684.021,not5NP,NP_8
1,rea,ste,1,DMCC8760894,rea_ste_run1_DMCC8760894,NP,7,1,drum,4000,0,0,,1,724369,733169,0,92361,42,632.008,640.808,-92.361,28.413,256.411,484.409,228.025,456.023,684.021,not5NP,NP_7
1,rea,ste,1,DMCC8760894,rea_ste_run1_DMCC8760894,NP,5,3,spell,1600,1,858,1,1,738769,747568,748426,92361,43,646.408,655.207,656.065,28.413,256.411,484.409,228.025,456.023,684.021,LL5NP,NP_5
1,rea,ste,1,DMCC8760894,rea_ste_run1_DMCC8760894,NP,6,1,people,1600,1,863,1,1,750768,759568,760431,92361,44,658.407,667.207,668.07,28.413,256.411,484.409,228.025,456.023,684.021,not5NP,NP_6
1,rea,ste,1,DMCC8760894,rea_ste_run1_DMCC8760894,NP,8,2,rattle,4000,1,1015,1,1,762768,771568,772583,92361,45,670.407,679.207,680.222,28.413,256.411,484.409,228.025,456.023,684.021,not5NP,NP_8
1,rea,ste,2,DMCC8760894,rea_ste_run2_DMCC8760894,NN,5,1,food,1600,1,1247,2,2,76133,84933,86180,45323,1,30.81,39.61,40.857,28.41,256.408,484.419,228.021,456.019,684.018,LL5NN,NN_5
1,rea,ste,2,DMCC8760894,rea_ste_run2_DMCC8760894,NP,8,2,rider,2800,1,1032,1,1,88133,96933,97965,45323,2,42.81,51.61,52.642,28.41,256.408,484.419,228.021,456.019,684.018,not5NP,NP_8
1,rea,ste,2,DMCC8760894,rea_ste_run2_DMCC8760894,RN,8,2,slug,4000,1,1438,2,2,101333,110133,111571,45323,3,56.01,64.81,66.248,28.41,256.408,484.419,228.021,456.019,684.018,not5RN,RN_8
1,rea,ste,2,DMCC8760894,rea_ste_run2_DMCC8760894,RN,8,2,witch,4000,0,0,,2,115733,124532,0,45323,4,70.41,79.209,-45.323,28.41,256.408,484.419,228.021,456.019,684.018,not5RN,RN_8
1,rea,ste,2,DMCC8760894,rea_ste_run2_DMCC8760894,RN,5,2,stain,1600,0,0,,2,130132,138932,0,45323,5,84.809,93.609,-45.323,28.41,256.408,484.419,228.021,456.019,684.018,LL5RN,RN_5
1,rea,ste,2,DMCC8760894,rea_ste_run2_DMCC8760894,NN,7,1,herd,1600,1,1369,2,2,142132,150932,152301,45323,6,96.809,105.609,106.978,28.41,256.408,484.419,228.021,456.019,684.018,not5NN,NN_7
1,rea,ste,2,DMCC8760894,rea_ste_run2_DMCC8760894,NP,7,1,flag,4000,0,1539,2,1,154132,162932,164471,45323,7,108.809,117.609,119.148,28.41,256.408,484.419,228.021,456.019,684.018,not5NP,NP_7
1,rea,ste,2,DMCC8760894,rea_ste_run2_DMCC8760894,RN,6,1,maid,2800,1,800,2,2,168532,177332,178132,45323,8,123.209,132.009,132.809,28.41,256.408,484.419,228.021,456.019,684.018,not5RN,RN_6
1,rea,ste,2,DMCC8760894,rea_ste_run2_DMCC8760894,NP,6,1,wall,1600,1,1161,1,1,181732,190532,191693,45323,9,136.409,145.209,146.37,28.41,256.408,484.419,228.021,456.019,684.018,not5NP,NP_6
1,rea,ste,2,DMCC8760894,rea_ste_run2_DMCC8760894,NP,5,3,zipper,2800,1,950,1,1,193732,202532,203482,45323,10,148.409,157.209,158.159,28.41,256.408,484.419,228.021,456.019,684.018,LL5NP,NP_5
1,rea,ste,2,DMCC8760894,rea_ste_run2_DMCC8760894,RN,5,2,pair,2800,1,1906,2,2,206932,215732,217638,45323,11,161.609,170.409,172.315,28.41,256.408,484.419,228.021,456.019,684.018,LL5RN,RN_5
1,rea,ste,2,DMCC8760894,rea_ste_run2_DMCC8760894,NP,8,2,tree,1600,0,1214,2,1,220132,228932,230146,45323,12,174.809,183.609,184.823,28.41,256.408,484.419,228.021,456.019,684.018,not5NP,NP_8
1,rea,ste,2,DMCC8760894,rea_ste_run2_DMCC8760894,NP,5,3,photo,4000,0,0,,1,232132,240931,0,45323,13,186.809,195.608,-45.323,28.41,256.408,484.419,228.021,456.019,684.018,LL5NP,NP_5
1,rea,ste,2,DMCC8760894,rea_ste_run2_DMCC8760894,NP,5,3,girl,4000,1,949,1,1,246531,255331,256280,45323,14,201.208,210.008,210.957,28.41,256.408,484.419,228.021,456.019,684.018,LL5NP,NP_5
1,rea,ste,2,DMCC8760894,rea_ste_run2_DMCC8760894,RN,7,1,quart,2800,0,0,,2,260931,269731,0,45323,15,215.608,224.408,-45.323,28.41,256.408,484.419,228.021,456.019,684.018,not5RN,RN_7
1,rea,ste,2,DMCC8760894,rea_ste_run2_DMCC8760894,NN,8,1,rest,2800,1,1277,2,2,304131,312931,314208,45323,16,258.808,267.608,268.885,28.41,256.408,484.419,228.021,456.019,684.018,not5NN,NN_8
1,rea,ste,2,DMCC8760894,rea_ste_run2_DMCC8760894,NP,7,2,singer,2800,1,1749,1,1,317331,326131,327880,45323,17,272.008,280.808,282.557,28.41,256.408,484.419,228.021,456.019,684.018,not5NP,NP_7
1,rea,ste,2,DMCC8760894,rea_ste_run2_DMCC8760894,RN,8,2,prince,1600,0,0,,2,330531,339331,0,45323,18,285.208,294.008,-45.323,28.41,256.408,484.419,228.021,456.019,684.018,not5RN,RN_8
1,rea,ste,2,DMCC8760894,rea_ste_run2_DMCC8760894,NP,5,3,pals,2800,1,1314,1,1,342531,351330,352644,45323,19,297.208,306.007,307.321,28.41,256.408,484.419,228.021,456.019,684.018,LL5NP,NP_5
1,rea,ste,2,DMCC8760894,rea_ste_run2_DMCC8760894,NP,5,3,cotton,1600,1,1319,1,1,355730,364530,365849,45323,20,310.407,319.207,320.526,28.41,256.408,484.419,228.021,456.019,684.018,LL5NP,NP_5
1,rea,ste,2,DMCC8760894,rea_ste_run2_DMCC8760894,NP,5,3,chest,4000,1,1880,1,1,367730,376530,378410,45323,21,322.407,331.207,333.087,28.41,256.408,484.419,228.021,456.019,684.018,LL5NP,NP_5
1,rea,ste,2,DMCC8760894,rea_ste_run2_DMCC8760894,NP,8,2,dawn,4000,0,1079,2,1,382130,390930,392009,45323,22,336.807,345.607,346.686,28.41,256.408,484.419,228.021,456.019,684.018,not5NP,NP_8
1,rea,ste,2,DMCC8760894,rea_ste_run2_DMCC8760894,RN,5,2,praise,4000,0,0,,2,396530,405330,0,45323,23,351.207,360.007,-45.323,28.41,256.408,484.419,228.021,456.019,684.018,LL5RN,RN_5
1,rea,ste,2,DMCC8760894,rea_ste_run2_DMCC8760894,RN,5,2,walker,2800,0,1117,1,2,410930,419730,420847,45323,24,365.607,374.407,375.524,28.41,256.408,484.419,228.021,456.019,684.018,LL5RN,RN_5
1,rea,ste,2,DMCC8760894,rea_ste_run2_DMCC8760894,NN,5,1,grass,1600,1,982,2,2,424130,432930,433912,45323,25,378.807,387.607,388.589,28.41,256.408,484.419,228.021,456.019,684.018,LL5NN,NN_5
1,rea,ste,2,DMCC8760894,rea_ste_run2_DMCC8760894,NP,8,2,charm,2800,1,979,1,1,436130,444930,445909,45323,26,390.807,399.607,400.586,28.41,256.408,484.419,228.021,456.019,684.018,not5NP,NP_8
1,rea,ste,2,DMCC8760894,rea_ste_run2_DMCC8760894,RN,8,2,barber,1600,0,0,,2,449330,458130,0,45323,27,404.007,412.807,-45.323,28.41,256.408,484.419,228.021,456.019,684.018,not5RN,RN_8
1,rea,ste,2,DMCC8760894,rea_ste_run2_DMCC8760894,RN,6,1,motor,4000,1,1094,2,2,461330,470129,471223,45323,28,416.007,424.806,425.9,28.41,256.408,484.419,228.021,456.019,684.018,not5RN,RN_6
1,rea,ste,2,DMCC8760894,rea_ste_run2_DMCC8760894,RN,7,1,east,4000,1,1115,2,2,475729,484529,485644,45323,29,430.406,439.206,440.321,28.41,256.408,484.419,228.021,456.019,684.018,not5RN,RN_7
1,rea,ste,2,DMCC8760894,rea_ste_run2_DMCC8760894,NP,7,2,oats,1600,1,1546,1,1,490129,498929,500475,45323,30,444.806,453.606,455.152,28.41,256.408,484.419,228.021,456.019,684.018,not5NP,NP_7
1,rea,ste,2,DMCC8760894,rea_ste_run2_DMCC8760894,NP,8,3,slip,1600,1,1176,1,1,532129,540929,542105,45323,31,486.806,495.606,496.782,28.41,256.408,484.419,228.021,456.019,684.018,not5NP,NP_8
1,rea,ste,2,DMCC8760894,rea_ste_run2_DMCC8760894,RN,7,2,note,2800,0,1262,1,2,544129,552929,554191,45323,32,498.806,507.606,508.868,28.41,256.408,484.419,228.021,456.019,684.018,not5RN,RN_7
1,rea,ste,2,DMCC8760894,rea_ste_run2_DMCC8760894,RN,5,2,tile,1600,1,1430,2,2,557329,566129,567559,45323,33,512.006,520.806,522.236,28.41,256.408,484.419,228.021,456.019,684.018,LL5RN,RN_5
1,rea,ste,2,DMCC8760894,rea_ste_run2_DMCC8760894,NP,5,3,winner,2800,1,1031,1,1,569329,578142,579173,45323,34,524.006,532.819,533.85,28.41,256.408,484.419,228.021,456.019,684.018,LL5NP,NP_5
1,rea,ste,2,DMCC8760894,rea_ste_run2_DMCC8760894,NN,5,1,flick,2800,1,974,2,2,582542,591342,592316,45323,35,537.219,546.019,546.993,28.41,256.408,484.419,228.021,456.019,684.018,LL5NN,NN_5
1,rea,ste,2,DMCC8760894,rea_ste_run2_DMCC8760894,NP,8,3,glove,2800,1,1663,1,1,595742,604542,606205,45323,36,550.419,559.219,560.882,28.41,256.408,484.419,228.021,456.019,684.018,not5NP,NP_8
1,rea,ste,2,DMCC8760894,rea_ste_run2_DMCC8760894,RN,5,2,list,4000,1,1038,2,2,608942,617741,618779,45323,37,563.619,572.418,573.456,28.41,256.408,484.419,228.021,456.019,684.018,LL5RN,RN_5
1,rea,ste,2,DMCC8760894,rea_ste_run2_DMCC8760894,NP,5,3,beach,4000,0,0,,1,623341,632141,0,45323,38,578.018,586.818,-45.323,28.41,256.408,484.419,228.021,456.019,684.018,LL5NP,NP_5
1,rea,ste,2,DMCC8760894,rea_ste_run2_DMCC8760894,NP,5,3,bugs,1600,0,897,2,1,637741,646541,647438,45323,39,592.418,601.218,602.115,28.41,256.408,484.419,228.021,456.019,684.018,LL5NP,NP_5
1,rea,ste,2,DMCC8760894,rea_ste_run2_DMCC8760894,NP,7,1,suit,4000,1,1141,1,1,649741,658541,659682,45323,40,604.418,613.218,614.359,28.41,256.408,484.419,228.021,456.019,684.018,not5NP,NP_7
1,rea,ste,2,DMCC8760894,rea_ste_run2_DMCC8760894,RN,8,1,dock,4000,1,1370,2,2,664141,672941,674311,45323,41,618.818,627.618,628.988,28.41,256.408,484.419,228.021,456.019,684.018,not5RN,RN_8
1,rea,ste,2,DMCC8760894,rea_ste_run2_DMCC8760894,RN,6,1,folder,1600,1,1567,2,2,678541,687341,688908,45323,42,633.218,642.018,643.585,28.41,256.408,484.419,228.021,456.019,684.018,not5RN,RN_6
1,rea,ste,2,DMCC8760894,rea_ste_run2_DMCC8760894,NP,8,3,owner,4000,0,1566,2,1,690541,699341,700907,45323,43,645.218,654.018,655.584,28.41,256.408,484.419,228.021,456.019,684.018,not5NP,NP_8
1,rea,ste,2,DMCC8760894,rea_ste_run2_DMCC8760894,NP,6,1,washer,1600,0,1448,2,1,704941,713741,715189,45323,44,659.618,668.418,669.866,28.41,256.408,484.419,228.021,456.019,684.018,not5NP,NP_6
1,rea,ste,2,DMCC8760894,rea_ste_run2_DMCC8760894,RN,7,2,void,2800,1,1085,2,2,716941,725741,726826,45323,45,671.618,680.418,681.503,28.41,256.408,484.419,228.021,456.019,684.018,not5RN,RN_7
3,bas,ste,1,DMCC8760894,bas_ste_run1_DMCC8760894,NP,5,3,syrup,4000,1,847,1,1,151570,160369,161216,120755,1,30.815,39.614,40.461,28.415,256.416,484.416,228.031,456.031,684.032,LL5NP,NP_5
3,bas,ste,1,DMCC8760894,bas_ste_run1_DMCC8760894,NN,8,2,scale,2800,1,911,2,2,165969,174769,175680,120755,2,45.214,54.014,54.925,28.415,256.416,484.416,228.031,456.031,684.032,not5NN,NN_8
3,bas,ste,1,DMCC8760894,bas_ste_run1_DMCC8760894,NN,8,2,doll,1600,1,773,2,2,179168,187968,188741,120755,3,58.413,67.213,67.986,28.415,256.416,484.416,228.031,456.031,684.032,not5NN,NN_8
3,bas,ste,1,DMCC8760894,bas_ste_run1_DMCC8760894,NP,5,3,threat,4000,0,996,2,1,191168,199967,200963,120755,4,70.413,79.212,80.208,28.415,256.416,484.416,228.031,456.031,684.032,LL5NP,NP_5
3,bas,ste,1,DMCC8760894,bas_ste_run1_DMCC8760894,NN,6,1,parrot,1600,1,812,2,2,205567,214366,215178,120755,5,84.812,93.611,94.423,28.415,256.416,484.416,228.031,456.031,684.032,not5NN,NN_6
3,bas,ste,1,DMCC8760894,bas_ste_run1_DMCC8760894,NP,8,2,chance,1600,1,933,1,1,217566,226366,227299,120755,6,96.811,105.611,106.544,28.415,256.416,484.416,228.031,456.031,684.032,not5NP,NP_8
3,bas,ste,1,DMCC8760894,bas_ste_run1_DMCC8760894,NN,5,2,blur,4000,1,691,2,2,229579,238378,239069,120755,7,108.824,117.623,118.314,28.415,256.416,484.416,228.031,456.031,684.032,LL5NN,NN_5
3,bas,ste,1,DMCC8760894,bas_ste_run1_DMCC8760894,NP,7,2,rash,2800,1,773,1,1,243978,252778,253551,120755,8,123.223,132.023,132.796,28.415,256.416,484.416,228.031,456.031,684.032,not5NP,NP_7
3,bas,ste,1,DMCC8760894,bas_ste_run1_DMCC8760894,NN,5,2,tube,1600,1,704,2,2,257177,265977,266681,120755,9,136.422,145.222,145.926,28.415,256.416,484.416,228.031,456.031,684.032,LL5NN,NN_5
3,bas,ste,1,DMCC8760894,bas_ste_run1_DMCC8760894,NP,5,3,share,2800,1,882,1,1,269177,277976,278858,120755,10,148.422,157.221,158.103,28.415,256.416,484.416,228.031,456.031,684.032,LL5NP,NP_5
3,bas,ste,1,DMCC8760894,bas_ste_run1_DMCC8760894,NP,7,2,wealth,2800,1,859,1,1,282376,291175,292034,120755,11,161.621,170.42,171.279,28.415,256.416,484.416,228.031,456.031,684.032,not5NP,NP_7
3,bas,ste,1,DMCC8760894,bas_ste_run1_DMCC8760894,NP,8,2,bush,4000,1,1232,1,1,295575,304375,305607,120755,12,174.82,183.62,184.852,28.415,256.416,484.416,228.031,456.031,684.032,not5NP,NP_8
3,bas,ste,1,DMCC8760894,bas_ste_run1_DMCC8760894,NN,7,1,straw,4000,1,947,2,2,309974,318774,319721,120755,13,189.219,198.019,198.966,28.415,256.416,484.416,228.031,456.031,684.032,not5NN,NN_7
3,bas,ste,1,DMCC8760894,bas_ste_run1_DMCC8760894,NP,6,1,frost,1600,1,753,1,1,324374,333173,333926,120755,14,203.619,212.418,213.171,28.415,256.416,484.416,228.031,456.031,684.032,not5NP,NP_6
3,bas,ste,1,DMCC8760894,bas_ste_run1_DMCC8760894,RN,5,1,quart,2800,1,719,2,2,336373,345172,345891,120755,15,215.618,224.417,225.136,28.415,256.416,484.416,228.031,456.031,684.032,LL5RN,RN_5
3,bas,ste,1,DMCC8760894,bas_ste_run1_DMCC8760894,NN,6,1,taxi,4000,1,689,2,2,379570,388370,389059,120755,16,258.815,267.615,268.304,28.415,256.416,484.416,228.031,456.031,684.032,not5NN,NN_6
3,bas,ste,1,DMCC8760894,bas_ste_run1_DMCC8760894,NN,8,2,liar,4000,1,941,2,2,393970,402769,403710,120755,17,273.215,282.014,282.955,28.415,256.416,484.416,228.031,456.031,684.032,not5NN,NN_8
3,bas,ste,1,DMCC8760894,bas_ste_run1_DMCC8760894,NP,7,2,need,2800,0,1171,2,1,408369,417168,418339,120755,18,287.614,296.413,297.584,28.415,256.416,484.416,228.031,456.031,684.032,not5NP,NP_7
3,bas,ste,1,DMCC8760894,bas_ste_run1_DMCC8760894,NP,7,2,bean,4000,1,831,1,1,421568,430368,431199,120755,19,300.813,309.613,310.444,28.415,256.416,484.416,228.031,456.031,684.032,not5NP,NP_7
3,bas,ste,1,DMCC8760894,bas_ste_run1_DMCC8760894,NP,8,3,bees,1600,0,1028,2,1,435967,444767,445795,120755,20,315.212,324.012,325.04,28.415,256.416,484.416,228.031,456.031,684.032,not5NP,NP_8
3,bas,ste,1,DMCC8760894,bas_ste_run1_DMCC8760894,NP,5,3,visit,2800,1,952,1,1,447967,456766,457718,120755,21,327.212,336.011,336.963,28.415,256.416,484.416,228.031,456.031,684.032,LL5NP,NP_5
3,bas,ste,1,DMCC8760894,bas_ste_run1_DMCC8760894,NN,7,1,logic,2800,1,825,2,2,461166,469979,470804,120755,22,340.411,349.224,350.049,28.415,256.416,484.416,228.031,456.031,684.032,not5NN,NN_7
3,bas,ste,1,DMCC8760894,bas_ste_run1_DMCC8760894,NP,5,3,people,1600,1,930,1,1,474379,483178,484108,120755,23,353.624,362.423,363.353,28.415,256.416,484.416,228.031,456.031,684.032,LL5NP,NP_5
3,bas,ste,1,DMCC8760894,bas_ste_run1_DMCC8760894,NN,8,2,heater,2800,1,759,2,2,486378,495177,495936,120755,24,365.623,374.422,375.181,28.415,256.416,484.416,228.031,456.031,684.032,not5NN,NN_8
3,bas,ste,1,DMCC8760894,bas_ste_run1_DMCC8760894,RN,5,1,noise,4000,1,1012,2,2,499577,508377,509389,120755,25,378.822,387.622,388.634,28.415,256.416,484.416,228.031,456.031,684.032,LL5RN,RN_5
3,bas,ste,1,DMCC8760894,bas_ste_run1_DMCC8760894,NN,5,2,pole,1600,1,995,2,2,513976,522776,523771,120755,26,393.221,402.021,403.016,28.415,256.416,484.416,228.031,456.031,684.032,LL5NN,NN_5
3,bas,ste,1,DMCC8760894,bas_ste_run1_DMCC8760894,NP,8,3,city,1600,1,716,1,1,525976,534775,535491,120755,27,405.221,414.02,414.736,28.415,256.416,484.416,228.031,456.031,684.032,not5NP,NP_8
3,bas,ste,1,DMCC8760894,bas_ste_run1_DMCC8760894,NP,8,3,carpet,1600,1,845,1,1,537975,546775,547620,120755,28,417.22,426.02,426.865,28.415,256.416,484.416,228.031,456.031,684.032,not5NP,NP_8
3,bas,ste,1,DMCC8760894,bas_ste_run1_DMCC8760894,NP,5,3,tags,4000,1,754,1,1,549974,558774,559528,120755,29,429.219,438.019,438.773,28.415,256.416,484.416,228.031,456.031,684.032,LL5NP,NP_5
3,bas,ste,1,DMCC8760894,bas_ste_run1_DMCC8760894,NN,5,2,greed,2800,1,915,2,2,564374,573173,574088,120755,30,443.619,452.418,453.333,28.415,256.416,484.416,228.031,456.031,684.032,LL5NN,NN_5
3,bas,ste,1,DMCC8760894,bas_ste_run1_DMCC8760894,NN,5,2,pans,1600,1,775,2,2,607571,616371,617146,120755,31,486.816,495.616,496.391,28.415,256.416,484.416,228.031,456.031,684.032,LL5NN,NN_5
3,bas,ste,1,DMCC8760894,bas_ste_run1_DMCC8760894,NP,5,3,muscle,4000,1,812,1,1,619570,628370,629182,120755,32,498.815,507.615,508.427,28.415,256.416,484.416,228.031,456.031,684.032,LL5NP,NP_5
3,bas,ste,1,DMCC8760894,bas_ste_run1_DMCC8760894,NP,8,2,bugs,1600,0,1248,2,1,633970,642769,644017,120755,33,513.215,522.014,523.262,28.415,256.416,484.416,228.031,456.031,684.032,not5NP,NP_8
3,bas,ste,1,DMCC8760894,bas_ste_run1_DMCC8760894,RN,5,1,fusion,4000,1,761,2,2,645969,654769,655530,120755,34,525.214,534.014,534.775,28.415,256.416,484.416,228.031,456.031,684.032,LL5RN,RN_5
3,bas,ste,1,DMCC8760894,bas_ste_run1_DMCC8760894,NN,8,2,shell,4000,1,1197,2,2,660368,669168,670365,120755,35,539.613,548.413,549.61,28.415,256.416,484.416,228.031,456.031,684.032,not5NN,NN_8
3,bas,ste,1,DMCC8760894,bas_ste_run1_DMCC8760894,NP,7,1,clue,1600,0,1368,2,1,674767,683567,684935,120755,36,554.012,562.812,564.18,28.415,256.416,484.416,228.031,456.031,684.032,not5NP,NP_7
3,bas,ste,1,DMCC8760894,bas_ste_run1_DMCC8760894,NP,8,2,wife,2800,1,862,1,1,686767,695566,696428,120755,37,566.012,574.811,575.673,28.415,256.416,484.416,228.031,456.031,684.032,not5NP,NP_8
3,bas,ste,1,DMCC8760894,bas_ste_run1_DMCC8760894,NN,5,2,gift,2800,1,988,2,2,699966,708779,709767,120755,38,579.211,588.024,589.012,28.415,256.416,484.416,228.031,456.031,684.032,LL5NN,NN_5
3,bas,ste,1,DMCC8760894,bas_ste_run1_DMCC8760894,NP,6,1,food,4000,1,1351,1,1,713179,721978,723329,120755,39,592.424,601.223,602.574,28.415,256.416,484.416,228.031,456.031,684.032,not5NP,NP_6
3,bas,ste,1,DMCC8760894,bas_ste_run1_DMCC8760894,RN,8,1,ground,1600,1,1060,2,2,727578,736377,737437,120755,40,606.823,615.622,616.682,28.415,256.416,484.416,228.031,456.031,684.032,not5RN,RN_8
3,bas,ste,1,DMCC8760894,bas_ste_run1_DMCC8760894,NP,5,3,marker,4000,1,949,1,1,739577,748377,749326,120755,41,618.822,627.622,628.571,28.415,256.416,484.416,228.031,456.031,684.032,LL5NP,NP_5
3,bas,ste,1,DMCC8760894,bas_ste_run1_DMCC8760894,NN,8,2,signal,2800,1,719,2,2,753976,762776,763495,120755,42,633.221,642.021,642.74,28.415,256.416,484.416,228.031,456.031,684.032,not5NN,NN_8
3,bas,ste,1,DMCC8760894,bas_ste_run1_DMCC8760894,NP,5,3,curve,2800,0,912,2,1,767176,775975,776887,120755,43,646.421,655.22,656.132,28.415,256.416,484.416,228.031,456.031,684.032,LL5NP,NP_5
3,bas,ste,1,DMCC8760894,bas_ste_run1_DMCC8760894,NN,7,2,pledge,1600,1,931,2,2,780375,789174,790105,120755,44,659.62,668.419,669.35,28.415,256.416,484.416,228.031,456.031,684.032,not5NN,NN_7
3,bas,ste,1,DMCC8760894,bas_ste_run1_DMCC8760894,NN,7,2,berry,2800,1,1839,2,2,792374,801174,803013,120755,45,671.619,680.419,682.258,28.415,256.416,484.416,228.031,456.031,684.032,not5NN,NN_7
3,bas,ste,2,DMCC8760894,bas_ste_run2_DMCC8760894,NP,5,3,north,2800,1,1205,1,1,98894,107693,108898,68078,1,30.816,39.615,40.82,28.416,256.417,484.417,228.031,456.032,684.033,LL5NP,NP_5
3,bas,ste,2,DMCC8760894,bas_ste_run2_DMCC8760894,NP,5,3,ransom,2800,1,698,1,1,112093,120893,121591,68078,2,44.015,52.815,53.513,28.416,256.417,484.417,228.031,456.032,684.033,LL5NP,NP_5
3,bas,ste,2,DMCC8760894,bas_ste_run2_DMCC8760894,NN,5,2,chin,2800,1,743,2,2,125292,134092,134835,68078,3,57.214,66.014,66.757,28.416,256.417,484.417,228.031,456.032,684.033,LL5NN,NN_5
3,bas,ste,2,DMCC8760894,bas_ste_run2_DMCC8760894,NN,6,1,whale,4000,1,628,2,2,138492,147304,147932,68078,4,70.414,79.226,79.854,28.416,256.417,484.417,228.031,456.032,684.033,not5NN,NN_6
3,bas,ste,2,DMCC8760894,bas_ste_run2_DMCC8760894,NN,8,2,cotton,2800,1,689,2,2,152904,161704,162393,68078,5,84.826,93.626,94.315,28.416,256.417,484.417,228.031,456.032,684.033,not5NN,NN_8
3,bas,ste,2,DMCC8760894,bas_ste_run2_DMCC8760894,NP,5,3,wheel,1600,1,743,1,1,166103,174903,175646,68078,6,98.025,106.825,107.568,28.416,256.417,484.417,228.031,456.032,684.033,LL5NP,NP_5
3,bas,ste,2,DMCC8760894,bas_ste_run2_DMCC8760894,RN,5,1,cabin,4000,1,882,2,2,178103,186902,187784,68078,7,110.025,118.824,119.706,28.416,256.417,484.417,228.031,456.032,684.033,LL5RN,RN_5
3,bas,ste,2,DMCC8760894,bas_ste_run2_DMCC8760894,NN,5,2,hatch,1600,1,986,2,2,192502,201301,202287,68078,8,124.424,133.223,134.209,28.416,256.417,484.417,228.031,456.032,684.033,LL5NN,NN_5
3,bas,ste,2,DMCC8760894,bas_ste_run2_DMCC8760894,NN,7,1,flame,4000,1,923,2,2,204501,213301,214224,68078,9,136.423,145.223,146.146,28.416,256.417,484.417,228.031,456.032,684.033,not5NN,NN_7
3,bas,ste,2,DMCC8760894,bas_ste_run2_DMCC8760894,NP,6,1,dollar,2800,0,873,2,1,218900,227700,228573,68078,10,150.822,159.622,160.495,28.416,256.417,484.417,228.031,456.032,684.033,not5NP,NP_6
3,bas,ste,2,DMCC8760894,bas_ste_run2_DMCC8760894,NP,8,2,exam,4000,1,712,1,1,232100,240899,241611,68078,11,164.022,172.821,173.533,28.416,256.417,484.417,228.031,456.032,684.033,not5NP,NP_8
3,bas,ste,2,DMCC8760894,bas_ste_run2_DMCC8760894,NN,8,2,lesson,1600,1,839,2,2,246499,255298,256137,68078,12,178.421,187.22,188.059,28.416,256.417,484.417,228.031,456.032,684.033,not5NN,NN_8
3,bas,ste,2,DMCC8760894,bas_ste_run2_DMCC8760894,NP,7,1,teeth,1600,0,1223,2,1,258498,267298,268521,68078,13,190.42,199.22,200.443,28.416,256.417,484.417,228.031,456.032,684.033,not5NP,NP_7
3,bas,ste,2,DMCC8760894,bas_ste_run2_DMCC8760894,NP,8,2,kids,4000,0,1050,2,1,270498,279297,280347,68078,14,202.42,211.219,212.269,28.416,256.417,484.417,228.031,456.032,684.033,not5NP,NP_8
3,bas,ste,2,DMCC8760894,bas_ste_run2_DMCC8760894,RN,7,1,jars,1600,1,1071,2,2,284897,293696,294767,68078,15,216.819,225.618,226.689,28.416,256.417,484.417,228.031,456.032,684.033,not5RN,RN_7
3,bas,ste,2,DMCC8760894,bas_ste_run2_DMCC8760894,NP,5,3,harp,1600,1,686,1,1,326894,335694,336380,68078,16,258.816,267.616,268.302,28.416,256.417,484.417,228.031,456.032,684.033,LL5NP,NP_5
3,bas,ste,2,DMCC8760894,bas_ste_run2_DMCC8760894,NN,8,2,sled,1600,1,917,2,2,338894,347693,348610,68078,17,270.816,279.615,280.532,28.416,256.417,484.417,228.031,456.032,684.033,not5NN,NN_8
3,bas,ste,2,DMCC8760894,bas_ste_run2_DMCC8760894,RN,8,1,house,4000,1,1033,2,2,350893,359693,360726,68078,18,282.815,291.615,292.648,28.416,256.417,484.417,228.031,456.032,684.033,not5RN,RN_8
3,bas,ste,2,DMCC8760894,bas_ste_run2_DMCC8760894,NP,5,3,store,2800,1,861,1,1,365292,374092,374953,68078,19,297.214,306.014,306.875,28.416,256.417,484.417,228.031,456.032,684.033,LL5NP,NP_5
3,bas,ste,2,DMCC8760894,bas_ste_run2_DMCC8760894,RN,5,1,soil,1600,1,1148,2,2,378492,387304,388452,68078,20,310.414,319.226,320.374,28.416,256.417,484.417,228.031,456.032,684.033,LL5RN,RN_5
3,bas,ste,2,DMCC8760894,bas_ste_run2_DMCC8760894,NN,6,1,zebra,1600,0,0,,2,390504,399304,0,68078,21,322.426,331.226,-68.078,28.416,256.417,484.417,228.031,456.032,684.033,not5NN,NN_6
3,bas,ste,2,DMCC8760894,bas_ste_run2_DMCC8760894,NP,8,2,action,4000,0,1061,2,1,402504,411303,412364,68078,22,334.426,343.225,344.286,28.416,256.417,484.417,228.031,456.032,684.033,not5NP,NP_8
3,bas,ste,2,DMCC8760894,bas_ste_run2_DMCC8760894,NN,7,1,poison,4000,1,797,2,2,416903,425702,426499,68078,23,348.825,357.624,358.421,28.416,256.417,484.417,228.031,456.032,684.033,not5NN,NN_7
3,bas,ste,2,DMCC8760894,bas_ste_run2_DMCC8760894,NN,5,2,heaven,2800,1,957,2,2,431302,440101,441058,68078,24,363.224,372.023,372.98,28.416,256.417,484.417,228.031,456.032,684.033,LL5NN,NN_5
3,bas,ste,2,DMCC8760894,bas_ste_run2_DMCC8760894,NP,8,2,text,2800,1,985,1,1,444501,453301,454286,68078,25,376.423,385.223,386.208,28.416,256.417,484.417,228.031,456.032,684.033,not5NP,NP_8
3,bas,ste,2,DMCC8760894,bas_ste_run2_DMCC8760894,NP,5,3,others,2800,0,978,2,1,457700,466500,467478,68078,26,389.622,398.422,399.4,28.416,256.417,484.417,228.031,456.032,684.033,LL5NP,NP_5
3,bas,ste,2,DMCC8760894,bas_ste_run2_DMCC8760894,NP,7,2,crime,4000,1,1405,1,1,470900,479699,481104,68078,27,402.822,411.621,413.026,28.416,256.417,484.417,228.031,456.032,684.033,not5NP,NP_7
3,bas,ste,2,DMCC8760894,bas_ste_run2_DMCC8760894,NN,5,2,barber,4000,1,750,2,2,485299,494098,494848,68078,28,417.221,426.02,426.77,28.416,256.417,484.417,228.031,456.032,684.033,LL5NN,NN_5
3,bas,ste,2,DMCC8760894,bas_ste_run2_DMCC8760894,NN,8,2,steel,2800,1,671,2,2,499698,508498,509169,68078,29,431.62,440.42,441.091,28.416,256.417,484.417,228.031,456.032,684.033,not5NN,NN_8
3,bas,ste,2,DMCC8760894,bas_ste_run2_DMCC8760894,NP,7,2,cherry,1600,0,1709,2,1,512897,521697,523406,68078,30,444.819,453.619,455.328,28.416,256.417,484.417,228.031,456.032,684.033,not5NP,NP_7
3,bas,ste,2,DMCC8760894,bas_ste_run2_DMCC8760894,NN,7,2,book,2800,1,1102,2,2,554895,563695,564797,68078,31,486.817,495.617,496.719,28.416,256.417,484.417,228.031,456.032,684.033,not5NN,NN_7
3,bas,ste,2,DMCC8760894,bas_ste_run2_DMCC8760894,NP,7,1,photo,4000,0,897,2,1,568094,576894,577791,68078,32,500.016,508.816,509.713,28.416,256.417,484.417,228.031,456.032,684.033,not5NP,NP_7
3,bas,ste,2,DMCC8760894,bas_ste_run2_DMCC8760894,NP,6,1,profit,4000,0,1049,2,1,582494,591293,592342,68078,33,514.416,523.215,524.264,28.416,256.417,484.417,228.031,456.032,684.033,not5NP,NP_6
3,bas,ste,2,DMCC8760894,bas_ste_run2_DMCC8760894,NN,7,2,word,1600,1,956,2,2,596893,605692,606648,68078,34,528.815,537.614,538.57,28.416,256.417,484.417,228.031,456.032,684.033,not5NN,NN_7
3,bas,ste,2,DMCC8760894,bas_ste_run2_DMCC8760894,NP,8,3,paper,1600,0,0,,1,608892,617705,0,68078,35,540.814,549.627,-68.078,28.416,256.417,484.417,228.031,456.032,684.033,not5NP,NP_8
3,bas,ste,2,DMCC8760894,bas_ste_run2_DMCC8760894,NP,8,3,pony,1600,0,954,2,1,620905,629704,630658,68078,36,552.827,561.626,562.58,28.416,256.417,484.417,228.031,456.032,684.033,not5NP,NP_8
3,bas,ste,2,DMCC8760894,bas_ste_run2_DMCC8760894,NP,5,3,fluid,1600,1,946,1,1,632904,641704,642650,68078,37,564.826,573.626,574.572,28.416,256.417,484.417,228.031,456.032,684.033,LL5NP,NP_5
3,bas,ste,2,DMCC8760894,bas_ste_run2_DMCC8760894,NN,8,1,church,2800,1,1406,2,2,644903,653703,655109,68078,38,576.825,585.625,587.031,28.416,256.417,484.417,228.031,456.032,684.033,not5NN,NN_8
3,bas,ste,2,DMCC8760894,bas_ste_run2_DMCC8760894,NN,5,2,story,4000,1,857,2,2,658103,666902,667759,68078,39,590.025,598.824,599.681,28.416,256.417,484.417,228.031,456.032,684.033,LL5NN,NN_5
3,bas,ste,2,DMCC8760894,bas_ste_run2_DMCC8760894,NP,5,3,yard,2800,1,745,1,1,672502,681301,682046,68078,40,604.424,613.223,613.968,28.416,256.417,484.417,228.031,456.032,684.033,LL5NP,NP_5
3,bas,ste,2,DMCC8760894,bas_ste_run2_DMCC8760894,RN,5,1,owner,4000,1,1246,2,2,685701,694501,695747,68078,41,617.623,626.423,627.669,28.416,256.417,484.417,228.031,456.032,684.033,LL5RN,RN_5
3,bas,ste,2,DMCC8760894,bas_ste_run2_DMCC8760894,NP,5,3,honey,2800,0,1325,2,1,700100,708900,710225,68078,42,632.022,640.822,642.147,28.416,256.417,484.417,228.031,456.032,684.033,LL5NP,NP_5
3,bas,ste,2,DMCC8760894,bas_ste_run2_DMCC8760894,NN,6,1,cows,1600,0,0,,2,713300,722099,0,68078,43,645.222,654.021,-68.078,28.416,256.417,484.417,228.031,456.032,684.033,not5NN,NN_6
3,bas,ste,2,DMCC8760894,bas_ste_run2_DMCC8760894,NP,8,3,pilot,2800,1,801,1,1,725299,734098,734899,68078,44,657.221,666.02,666.821,28.416,256.417,484.417,228.031,456.032,684.033,not5NP,NP_8
3,bas,ste,2,DMCC8760894,bas_ste_run2_DMCC8760894,NN,5,2,train,4000,1,1517,2,2,738498,747298,748815,68078,45,670.42,679.22,680.737,28.416,256.417,484.417,228.031,456.032,684.033,LL5NN,NN_5
3,pro,ste,1,DMCC8760894,pro_ste_run1_DMCC8760894,NN,2,2,vision,2800,1,677,2,2,139202,148001,148678,108383,1,30.819,39.618,40.295,28.419,256.413,484.42,228.029,456.022,684.03,not5NN,NN_2
3,pro,ste,1,DMCC8760894,pro_ste_run1_DMCC8760894,NP,5,3,park,1600,1,891,1,1,152401,161200,162091,108383,2,44.018,52.817,53.708,28.419,256.413,484.42,228.029,456.022,684.03,LL5NP,NP_5
3,pro,ste,1,DMCC8760894,pro_ste_run1_DMCC8760894,NN,4,1,idea,2800,1,594,2,2,164399,173199,173793,108383,3,56.016,64.816,65.41,28.419,256.413,484.42,228.029,456.022,684.03,not5NN,NN_4
3,pro,ste,1,DMCC8760894,pro_ste_run1_DMCC8760894,NP,5,3,boiler,1600,1,1751,1,1,177598,186398,188149,108383,4,69.215,78.015,79.766,28.419,256.413,484.42,228.029,456.022,684.03,LL5NP,NP_5
3,pro,ste,1,DMCC8760894,pro_ste_run1_DMCC8760894,NP,3,2,ranch,4000,1,717,1,1,189597,198397,199114,108383,5,81.214,90.014,90.731,28.419,256.413,484.42,228.029,456.022,684.03,not5NP,NP_3
3,pro,ste,1,DMCC8760894,pro_ste_run1_DMCC8760894,NN,5,2,deed,4000,1,878,2,2,203996,212795,213673,108383,6,95.613,104.412,105.29,28.419,256.413,484.42,228.029,456.022,684.03,LL5NN,NN_5
3,pro,ste,1,DMCC8760894,pro_ste_run1_DMCC8760894,NN,2,2,access,2800,1,614,2,2,218395,227194,227808,108383,7,110.012,118.811,119.425,28.419,256.413,484.42,228.029,456.022,684.03,not5NN,NN_2
3,pro,ste,1,DMCC8760894,pro_ste_run1_DMCC8760894,NP,4,1,ways,4000,1,838,1,1,231594,240406,241244,108383,8,123.211,132.023,132.861,28.419,256.413,484.42,228.029,456.022,684.03,not5NP,NP_4
3,pro,ste,1,DMCC8760894,pro_ste_run1_DMCC8760894,RN,5,1,keeper,4000,1,1151,2,2,246006,254805,255956,108383,9,137.623,146.422,147.573,28.419,256.413,484.42,228.029,456.022,684.03,LL5RN,RN_5
3,pro,ste,1,DMCC8760894,pro_ste_run1_DMCC8760894,NN,5,2,item,1600,1,781,2,2,260405,269204,269985,108383,10,152.022,160.821,161.602,28.419,256.413,484.42,228.029,456.022,684.03,LL5NN,NN_5
3,pro,ste,1,DMCC8760894,pro_ste_run1_DMCC8760894,NN,3,1,hope,2800,1,677,2,2,272404,281203,281880,108383,11,164.021,172.82,173.497,28.419,256.413,484.42,228.029,456.022,684.03,not5NN,NN_3
3,pro,ste,1,DMCC8760894,pro_ste_run1_DMCC8760894,NP,5,3,parent,4000,1,712,1,1,285603,294402,295114,108383,12,177.22,186.019,186.731,28.419,256.413,484.42,228.029,456.022,684.03,LL5NP,NP_5
3,pro,ste,1,DMCC8760894,pro_ste_run1_DMCC8760894,NP,2,2,dryer,2800,1,936,1,1,300001,308801,309737,108383,13,191.618,200.418,201.354,28.419,256.413,484.42,228.029,456.022,684.03,not5NP,NP_2
3,pro,ste,1,DMCC8760894,pro_ste_run1_DMCC8760894,NP,2,2,suit,1600,1,867,1,1,313200,321999,322866,108383,14,204.817,213.616,214.483,28.419,256.413,484.42,228.029,456.022,684.03,not5NP,NP_2
3,pro,ste,1,DMCC8760894,pro_ste_run1_DMCC8760894,NP,3,2,nail,1600,1,902,1,1,325199,333998,334900,108383,15,216.816,225.615,226.517,28.419,256.413,484.42,228.029,456.022,684.03,not5NP,NP_3
3,pro,ste,1,DMCC8760894,pro_ste_run1_DMCC8760894,NP,5,3,menu,4000,1,1358,1,1,367196,375995,377353,108383,16,258.813,267.612,268.97,28.419,256.413,484.42,228.029,456.022,684.03,LL5NP,NP_5
3,pro,ste,1,DMCC8760894,pro_ste_run1_DMCC8760894,NN,5,2,rage,2800,1,1088,2,2,381594,390394,391482,108383,17,273.211,282.011,283.099,28.419,256.413,484.42,228.029,456.022,684.03,LL5NN,NN_5
3,pro,ste,1,DMCC8760894,pro_ste_run1_DMCC8760894,NN,2,2,laser,4000,1,810,2,2,394807,403606,404416,108383,18,286.424,295.223,296.033,28.419,256.413,484.42,228.029,456.022,684.03,not5NN,NN_2
3,pro,ste,1,DMCC8760894,pro_ste_run1_DMCC8760894,NP,2,3,wool,1600,1,840,1,1,409205,418005,418845,108383,19,300.822,309.622,310.462,28.419,256.413,484.42,228.029,456.022,684.03,not5NP,NP_2
3,pro,ste,1,DMCC8760894,pro_ste_run1_DMCC8760894,NP,5,3,color,4000,1,1595,1,1,421204,430004,431599,108383,20,312.821,321.621,323.216,28.419,256.413,484.42,228.029,456.022,684.03,LL5NP,NP_5
3,pro,ste,1,DMCC8760894,pro_ste_run1_DMCC8760894,NP,3,2,saint,4000,1,901,1,1,435603,444402,445303,108383,21,327.22,336.019,336.92,28.419,256.413,484.42,228.029,456.022,684.03,not5NP,NP_3
3,pro,ste,1,DMCC8760894,pro_ste_run1_DMCC8760894,NN,4,1,critic,4000,1,757,2,2,450002,458801,459558,108383,22,341.619,350.418,351.175,28.419,256.413,484.42,228.029,456.022,684.03,not5NN,NN_4
3,pro,ste,1,DMCC8760894,pro_ste_run1_DMCC8760894,NN,5,2,roses,2800,1,758,2,2,464401,473200,473958,108383,23,356.018,364.817,365.575,28.419,256.413,484.42,228.029,456.022,684.03,LL5NN,NN_5
3,pro,ste,1,DMCC8760894,pro_ste_run1_DMCC8760894,NN,3,1,rumor,2800,1,982,2,2,477600,486399,487381,108383,24,369.217,378.016,378.998,28.419,256.413,484.42,228.029,456.022,684.03,not5NN,NN_3
3,pro,ste,1,DMCC8760894,pro_ste_run1_DMCC8760894,NP,3,2,heel,1600,1,817,1,1,490798,499598,500415,108383,25,382.415,391.215,392.032,28.419,256.413,484.42,228.029,456.022,684.03,not5NP,NP_3
3,pro,ste,1,DMCC8760894,pro_ste_run1_DMCC8760894,RN,5,1,shell,1600,1,1531,2,2,502797,511597,513128,108383,26,394.414,403.214,404.745,28.419,256.413,484.42,228.029,456.022,684.03,LL5RN,RN_5
3,pro,ste,1,DMCC8760894,pro_ste_run1_DMCC8760894,NP,5,3,review,1600,1,1007,1,1,514796,523596,524603,108383,27,406.413,415.213,416.22,28.419,256.413,484.42,228.029,456.022,684.03,LL5NP,NP_5
3,pro,ste,1,DMCC8760894,pro_ste_run1_DMCC8760894,NN,2,2,rash,1600,1,1062,2,2,526795,535595,536657,108383,28,418.412,427.212,428.274,28.419,256.413,484.42,228.029,456.022,684.03,not5NN,NN_2
3,pro,ste,1,DMCC8760894,pro_ste_run1_DMCC8760894,NP,2,3,chip,2800,1,896,1,1,538794,547594,548490,108383,29,430.411,439.211,440.107,28.419,256.413,484.42,228.029,456.022,684.03,not5NP,NP_2
3,pro,ste,1,DMCC8760894,pro_ste_run1_DMCC8760894,NP,2,3,parade,2800,1,677,1,1,552007,560806,561483,108383,30,443.624,452.423,453.1,28.419,256.413,484.42,228.029,456.022,684.03,not5NP,NP_2
3,pro,ste,1,DMCC8760894,pro_ste_run1_DMCC8760894,NP,4,1,verse,2800,1,712,1,1,595203,604002,604714,108383,31,486.82,495.619,496.331,28.419,256.413,484.42,228.029,456.022,684.03,not5NP,NP_4
3,pro,ste,1,DMCC8760894,pro_ste_run1_DMCC8760894,NN,3,2,torch,2800,1,707,2,2,608402,617201,617908,108383,32,500.019,508.818,509.525,28.419,256.413,484.42,228.029,456.022,684.03,not5NN,NN_3
3,pro,ste,1,DMCC8760894,pro_ste_run1_DMCC8760894,NN,5,2,deal,2800,1,836,2,2,621601,630400,631236,108383,33,513.218,522.017,522.853,28.419,256.413,484.42,228.029,456.022,684.03,LL5NN,NN_5
3,pro,ste,1,DMCC8760894,pro_ste_run1_DMCC8760894,NP,5,3,clay,4000,1,1400,1,1,634799,643599,644999,108383,34,526.416,535.216,536.616,28.419,256.413,484.42,228.029,456.022,684.03,LL5NP,NP_5
3,pro,ste,1,DMCC8760894,pro_ste_run1_DMCC8760894,NP,5,3,forest,2800,1,1131,1,1,649198,657998,659129,108383,35,540.815,549.615,550.746,28.419,256.413,484.42,228.029,456.022,684.03,LL5NP,NP_5
3,pro,ste,1,DMCC8760894,pro_ste_run1_DMCC8760894,NP,3,1,charge,4000,1,1288,1,1,662397,671196,672484,108383,36,554.014,562.813,564.101,28.419,256.413,484.42,228.029,456.022,684.03,not5NP,NP_3
3,pro,ste,1,DMCC8760894,pro_ste_run1_DMCC8760894,NN,2,2,moose,1600,1,726,2,2,676796,685595,686321,108383,37,568.413,577.212,577.938,28.419,256.413,484.42,228.029,456.022,684.03,not5NN,NN_2
3,pro,ste,1,DMCC8760894,pro_ste_run1_DMCC8760894,RN,5,1,chest,4000,1,1480,2,2,688795,697594,699074,108383,38,580.412,589.211,590.691,28.419,256.413,484.42,228.029,456.022,684.03,LL5RN,RN_5
3,pro,ste,1,DMCC8760894,pro_ste_run1_DMCC8760894,NP,2,2,paste,4000,1,1148,1,1,703194,712006,713154,108383,39,594.811,603.623,604.771,28.419,256.413,484.42,228.029,456.022,684.03,not5NP,NP_2
3,pro,ste,1,DMCC8760894,pro_ste_run1_DMCC8760894,NN,3,2,donor,1600,1,755,2,2,717606,726405,727160,108383,40,609.223,618.022,618.777,28.419,256.413,484.42,228.029,456.022,684.03,not5NN,NN_3
3,pro,ste,1,DMCC8760894,pro_ste_run1_DMCC8760894,NP,5,3,advice,1600,1,1024,1,1,729605,738404,739428,108383,41,621.222,630.021,631.045,28.419,256.413,484.42,228.029,456.022,684.03,LL5NP,NP_5
3,pro,ste,1,DMCC8760894,pro_ste_run1_DMCC8760894,NN,2,2,work,1600,1,1118,2,2,741604,750403,751521,108383,42,633.221,642.02,643.138,28.419,256.413,484.42,228.029,456.022,684.03,not5NN,NN_2
3,pro,ste,1,DMCC8760894,pro_ste_run1_DMCC8760894,RN,2,1,bags,4000,1,1236,2,2,753603,762402,763638,108383,43,645.22,654.019,655.255,28.419,256.413,484.42,228.029,456.022,684.03,not5RN,RN_2
3,pro,ste,1,DMCC8760894,pro_ste_run1_DMCC8760894,NN,5,2,group,1600,1,1680,2,2,768001,776801,778481,108383,44,659.618,668.418,670.098,28.419,256.413,484.42,228.029,456.022,684.03,LL5NN,NN_5
3,pro,ste,1,DMCC8760894,pro_ste_run1_DMCC8760894,NP,2,2,guys,2800,1,1322,1,1,780000,788800,790122,108383,45,671.617,680.417,681.739,28.419,256.413,484.42,228.029,456.022,684.03,not5NP,NP_2
3,pro,ste,2,DMCC8760894,pro_ste_run2_DMCC8760894,NN,4,1,campus,4000,1,1072,2,2,71457,80257,81329,40644,1,30.813,39.613,40.685,28.414,256.408,484.415,228.023,456.017,684.025,not5NN,NN_4
3,pro,ste,2,DMCC8760894,pro_ste_run2_DMCC8760894,NP,5,3,snap,2800,1,1531,1,1,85856,94655,96186,40644,2,45.212,54.011,55.542,28.414,256.408,484.415,228.023,456.017,684.025,LL5NP,NP_5
3,pro,ste,2,DMCC8760894,pro_ste_run2_DMCC8760894,NP,4,1,belief,4000,1,1466,1,1,99055,107854,109320,40644,3,58.411,67.21,68.676,28.414,256.408,484.415,228.023,456.017,684.025,not5NP,NP_4
3,pro,ste,2,DMCC8760894,pro_ste_run2_DMCC8760894,NP,3,1,drip,4000,1,1112,1,1,113454,122253,123365,40644,4,72.81,81.609,82.721,28.414,256.408,484.415,228.023,456.017,684.025,not5NP,NP_3
3,pro,ste,2,DMCC8760894,pro_ste_run2_DMCC8760894,NP,2,2,bottle,2800,1,730,1,1,127853,136652,137382,40644,5,87.209,96.008,96.738,28.414,256.408,484.415,228.023,456.017,684.025,not5NP,NP_2
3,pro,ste,2,DMCC8760894,pro_ste_run2_DMCC8760894,RN,5,1,level,1600,1,1120,2,2,141052,149851,150971,40644,6,100.408,109.207,110.327,28.414,256.408,484.415,228.023,456.017,684.025,LL5RN,RN_5
3,pro,ste,2,DMCC8760894,pro_ste_run2_DMCC8760894,NN,2,2,spice,2800,1,1392,2,2,153051,161850,163242,40644,7,112.407,121.206,122.598,28.414,256.408,484.415,228.023,456.017,684.025,not5NN,NN_2
3,pro,ste,2,DMCC8760894,pro_ste_run2_DMCC8760894,NN,2,2,coal,1600,1,666,2,2,166249,175049,175715,40644,8,125.605,134.405,135.071,28.414,256.408,484.415,228.023,456.017,684.025,not5NN,NN_2
3,pro,ste,2,DMCC8760894,pro_ste_run2_DMCC8760894,NN,3,1,film,4000,1,841,2,2,178248,187048,187889,40644,9,137.604,146.404,147.245,28.414,256.408,484.415,228.023,456.017,684.025,not5NN,NN_3
3,pro,ste,2,DMCC8760894,pro_ste_run2_DMCC8760894,RN,3,1,singer,1600,1,1184,2,2,192660,201460,202644,40644,10,152.016,160.816,162,28.414,256.408,484.415,228.023,456.017,684.025,not5RN,RN_3
3,pro,ste,2,DMCC8760894,pro_ste_run2_DMCC8760894,NN,5,2,herd,1600,1,951,2,2,204659,213459,214410,40644,11,164.015,172.815,173.766,28.414,256.408,484.415,228.023,456.017,684.025,LL5NN,NN_5
3,pro,ste,2,DMCC8760894,pro_ste_run2_DMCC8760894,NP,5,3,flight,4000,1,1408,1,1,216658,225458,226866,40644,12,176.014,184.814,186.222,28.414,256.408,484.415,228.023,456.017,684.025,LL5NP,NP_5
3,pro,ste,2,DMCC8760894,pro_ste_run2_DMCC8760894,NP,2,2,quote,2800,0,0,,1,231057,239856,0,40644,13,190.413,199.212,-40.644,28.414,256.408,484.415,228.023,456.017,684.025,not5NP,NP_2
3,pro,ste,2,DMCC8760894,pro_ste_run2_DMCC8760894,NN,5,2,fury,2800,1,1033,2,2,244256,253055,254088,40644,14,203.612,212.411,213.444,28.414,256.408,484.415,228.023,456.017,684.025,LL5NN,NN_5
3,pro,ste,2,DMCC8760894,pro_ste_run2_DMCC8760894,NP,5,3,stroke,1600,1,1030,1,1,257455,266254,267284,40644,15,216.811,225.61,226.64,28.414,256.408,484.415,228.023,456.017,684.025,LL5NP,NP_5
3,pro,ste,2,DMCC8760894,pro_ste_run2_DMCC8760894,NP,3,2,gold,1600,1,663,1,1,299451,308251,308914,40644,16,258.807,267.607,268.27,28.414,256.408,484.415,228.023,456.017,684.025,not5NP,NP_3
3,pro,ste,2,DMCC8760894,pro_ste_run2_DMCC8760894,NP,3,2,sailor,1600,1,758,1,1,311450,320250,321008,40644,17,270.806,279.606,280.364,28.414,256.408,484.415,228.023,456.017,684.025,not5NP,NP_3
3,pro,ste,2,DMCC8760894,pro_ste_run2_DMCC8760894,NP,5,3,thing,1600,1,1345,1,1,323449,332249,333594,40644,18,282.805,291.605,292.95,28.414,256.408,484.415,228.023,456.017,684.025,LL5NP,NP_5
3,pro,ste,2,DMCC8760894,pro_ste_run2_DMCC8760894,NN,5,2,kids,1600,1,1240,2,2,335448,344248,345488,40644,19,294.804,303.604,304.844,28.414,256.408,484.415,228.023,456.017,684.025,LL5NN,NN_5
3,pro,ste,2,DMCC8760894,pro_ste_run2_DMCC8760894,RN,2,1,onion,4000,1,811,2,2,347461,356260,357071,40644,20,306.817,315.616,316.427,28.414,256.408,484.415,228.023,456.017,684.025,not5RN,RN_2
3,pro,ste,2,DMCC8760894,pro_ste_run2_DMCC8760894,NP,5,3,grill,2800,1,873,1,1,361859,370659,371532,40644,21,321.215,330.015,330.888,28.414,256.408,484.415,228.023,456.017,684.025,LL5NP,NP_5
3,pro,ste,2,DMCC8760894,pro_ste_run2_DMCC8760894,NN,4,1,barber,2800,1,994,2,2,375058,383858,384852,40644,22,334.414,343.214,344.208,28.414,256.408,484.415,228.023,456.017,684.025,not5NN,NN_4
3,pro,ste,2,DMCC8760894,pro_ste_run2_DMCC8760894,NN,2,2,flaw,4000,1,749,2,2,388257,397056,397805,40644,23,347.613,356.412,357.161,28.414,256.408,484.415,228.023,456.017,684.025,not5NN,NN_2
3,pro,ste,2,DMCC8760894,pro_ste_run2_DMCC8760894,NN,3,1,grain,4000,0,0,,2,402656,411455,0,40644,24,362.012,370.811,-40.644,28.414,256.408,484.415,228.023,456.017,684.025,not5NN,NN_3
3,pro,ste,2,DMCC8760894,pro_ste_run2_DMCC8760894,NP,2,2,nerve,4000,1,944,1,1,417055,425854,426798,40644,25,376.411,385.21,386.154,28.414,256.408,484.415,228.023,456.017,684.025,not5NP,NP_2
3,pro,ste,2,DMCC8760894,pro_ste_run2_DMCC8760894,NP,5,3,class,2800,0,1679,2,1,431454,440253,441932,40644,26,390.81,399.609,401.288,28.414,256.408,484.415,228.023,456.017,684.025,LL5NP,NP_5
3,pro,ste,2,DMCC8760894,pro_ste_run2_DMCC8760894,NN,2,2,tally,2800,1,746,2,2,444652,453452,454198,40644,27,404.008,412.808,413.554,28.414,256.408,484.415,228.023,456.017,684.025,not5NN,NN_2
3,pro,ste,2,DMCC8760894,pro_ste_run2_DMCC8760894,NP,2,2,photo,1600,0,0,,1,457851,466651,0,40644,28,417.207,426.007,-40.644,28.414,256.408,484.415,228.023,456.017,684.025,not5NP,NP_2
3,pro,ste,2,DMCC8760894,pro_ste_run2_DMCC8760894,NN,5,2,zebra,2800,1,860,2,2,469850,478650,479510,40644,29,429.206,438.006,438.866,28.414,256.408,484.415,228.023,456.017,684.025,LL5NN,NN_5
3,pro,ste,2,DMCC8760894,pro_ste_run2_DMCC8760894,RN,5,1,pupil,4000,1,994,2,2,483049,491848,492842,40644,30,442.405,451.204,452.198,28.414,256.408,484.415,228.023,456.017,684.025,LL5RN,RN_5
3,pro,ste,2,DMCC8760894,pro_ste_run2_DMCC8760894,NN,2,1,list,2800,1,1091,2,2,527459,536258,537349,40644,31,486.815,495.614,496.705,28.414,256.408,484.415,228.023,456.017,684.025,not5NN,NN_2
3,pro,ste,2,DMCC8760894,pro_ste_run2_DMCC8760894,NP,3,1,tissue,4000,1,1022,1,1,540658,549457,550479,40644,32,500.014,508.813,509.835,28.414,256.408,484.415,228.023,456.017,684.025,not5NP,NP_3
3,pro,ste,2,DMCC8760894,pro_ste_run2_DMCC8760894,NP,2,3,point,2800,1,1174,1,1,555056,563856,565030,40644,33,514.412,523.212,524.386,28.414,256.408,484.415,228.023,456.017,684.025,not5NP,NP_2
3,pro,ste,2,DMCC8760894,pro_ste_run2_DMCC8760894,NN,5,2,output,1600,1,1436,2,2,568255,577054,578490,40644,34,527.611,536.41,537.846,28.414,256.408,484.415,228.023,456.017,684.025,LL5NN,NN_5
3,pro,ste,2,DMCC8760894,pro_ste_run2_DMCC8760894,NP,5,3,finger,4000,0,0,,1,580254,589053,0,40644,35,539.61,548.409,-40.644,28.414,256.408,484.415,228.023,456.017,684.025,LL5NP,NP_5
3,pro,ste,2,DMCC8760894,pro_ste_run2_DMCC8760894,NP,2,3,grace,1600,1,892,1,1,594653,603452,604344,40644,36,554.009,562.808,563.7,28.414,256.408,484.415,228.023,456.017,684.025,not5NP,NP_2
3,pro,ste,2,DMCC8760894,pro_ste_run2_DMCC8760894,NN,3,2,filter,1600,1,645,2,2,606652,615451,616096,40644,37,566.008,574.807,575.452,28.414,256.408,484.415,228.023,456.017,684.025,not5NN,NN_3
3,pro,ste,2,DMCC8760894,pro_ste_run2_DMCC8760894,NP,5,3,click,2800,0,1305,2,1,618651,627450,628755,40644,38,578.007,586.806,588.111,28.414,256.408,484.415,228.023,456.017,684.025,LL5NP,NP_5
3,pro,ste,2,DMCC8760894,pro_ste_run2_DMCC8760894,NN,3,2,cows,2800,0,0,,2,631850,640649,0,40644,39,591.206,600.005,-40.644,28.414,256.408,484.415,228.023,456.017,684.025,not5NN,NN_3
3,pro,ste,2,DMCC8760894,pro_ste_run2_DMCC8760894,RN,5,1,need,4000,1,1087,2,2,645049,653848,654935,40644,40,604.405,613.204,614.291,28.414,256.408,484.415,228.023,456.017,684.025,LL5RN,RN_5
3,pro,ste,2,DMCC8760894,pro_ste_run2_DMCC8760894,NP,5,3,void,4000,1,822,1,1,659461,668260,669082,40644,41,618.817,627.616,628.438,28.414,256.408,484.415,228.023,456.017,684.025,LL5NP,NP_5
3,pro,ste,2,DMCC8760894,pro_ste_run2_DMCC8760894,NP,2,3,talent,4000,1,972,1,1,673860,682659,683631,40644,42,633.216,642.015,642.987,28.414,256.408,484.415,228.023,456.017,684.025,not5NP,NP_2
3,pro,ste,2,DMCC8760894,pro_ste_run2_DMCC8760894,NP,4,1,clown,2800,1,797,1,1,688258,697058,697855,40644,43,647.614,656.414,657.211,28.414,256.408,484.415,228.023,456.017,684.025,not5NP,NP_4
3,pro,ste,2,DMCC8760894,pro_ste_run2_DMCC8760894,NN,5,2,signal,1600,1,807,2,2,701457,710256,711063,40644,44,660.813,669.612,670.419,28.414,256.408,484.415,228.023,456.017,684.025,LL5NN,NN_5
3,pro,ste,2,DMCC8760894,pro_ste_run2_DMCC8760894,NN,4,1,grip,1600,1,727,2,2,713456,722255,722982,40644,45,672.812,681.611,682.338,28.414,256.408,484.415,228.023,456.017,684.025,not5NN,NN_4
3,rea,ste,1,DMCC8760894,rea_ste_run1_DMCC8760894,NP,8,2,brow,2800,1,898,1,1,140940,149740,150638,110124,1,30.816,39.616,40.514,28.416,256.414,484.412,228.015,456.026,684.024,not5NP,NP_8
3,rea,ste,1,DMCC8760894,rea_ste_run1_DMCC8760894,RN,5,2,jets,1600,1,884,2,2,154140,162940,163824,110124,2,44.016,52.816,53.7,28.416,256.414,484.412,228.015,456.026,684.024,LL5RN,RN_5
3,rea,ste,1,DMCC8760894,rea_ste_run1_DMCC8760894,NP,5,3,touch,1600,1,827,1,1,166140,174940,175767,110124,3,56.016,64.816,65.643,28.416,256.414,484.412,228.015,456.026,684.024,LL5NP,NP_5
3,rea,ste,1,DMCC8760894,rea_ste_run1_DMCC8760894,NP,5,3,pound,2800,1,1843,1,1,178140,186940,188783,110124,4,68.016,76.816,78.659,28.416,256.414,484.412,228.015,456.026,684.024,LL5NP,NP_5
3,rea,ste,1,DMCC8760894,rea_ste_run1_DMCC8760894,RN,7,1,rivals,1600,1,825,2,2,191340,200140,200965,110124,5,81.216,90.016,90.841,28.416,256.414,484.412,228.015,456.026,684.024,not5RN,RN_7
3,rea,ste,1,DMCC8760894,rea_ste_run1_DMCC8760894,NP,6,1,name,1600,1,757,1,1,203340,212140,212897,110124,6,93.216,102.016,102.773,28.416,256.414,484.412,228.015,456.026,684.024,not5NP,NP_6
3,rea,ste,1,DMCC8760894,rea_ste_run1_DMCC8760894,NP,7,2,world,4000,0,1026,2,1,215340,224140,225166,110124,7,105.216,114.016,115.042,28.416,256.414,484.412,228.015,456.026,684.024,not5NP,NP_7
3,rea,ste,1,DMCC8760894,rea_ste_run1_DMCC8760894,RN,8,2,marker,2800,0,1106,1,2,229740,238540,239646,110124,8,119.616,128.416,129.522,28.416,256.414,484.412,228.015,456.026,684.024,not5RN,RN_8
3,rea,ste,1,DMCC8760894,rea_ste_run1_DMCC8760894,NP,5,3,wife,4000,1,1000,1,1,242940,251739,252739,110124,9,132.816,141.615,142.615,28.416,256.414,484.412,228.015,456.026,684.024,LL5NP,NP_5
3,rea,ste,1,DMCC8760894,rea_ste_run1_DMCC8760894,RN,5,2,paper,4000,0,1441,1,2,257339,266139,267580,110124,10,147.215,156.015,157.456,28.416,256.414,484.412,228.015,456.026,684.024,LL5RN,RN_5
3,rea,ste,1,DMCC8760894,rea_ste_run1_DMCC8760894,NN,5,1,chin,2800,0,1377,1,2,271739,280539,281916,110124,11,161.615,170.415,171.792,28.416,256.414,484.412,228.015,456.026,684.024,LL5NN,NN_5
3,rea,ste,1,DMCC8760894,rea_ste_run1_DMCC8760894,NP,7,2,grill,4000,1,876,1,1,284939,293739,294615,110124,12,174.815,183.615,184.491,28.416,256.414,484.412,228.015,456.026,684.024,not5NP,NP_7
3,rea,ste,1,DMCC8760894,rea_ste_run1_DMCC8760894,RN,8,2,rhyme,4000,1,793,2,2,299339,308139,308932,110124,13,189.215,198.015,198.808,28.416,256.414,484.412,228.015,456.026,684.024,not5RN,RN_8
3,rea,ste,1,DMCC8760894,rea_ste_run1_DMCC8760894,NP,8,2,goods,2800,1,777,1,1,313739,322539,323316,110124,14,203.615,212.415,213.192,28.416,256.414,484.412,228.015,456.026,684.024,not5NP,NP_8
3,rea,ste,1,DMCC8760894,rea_ste_run1_DMCC8760894,RN,6,1,reign,1600,0,1472,1,2,326939,335739,337211,110124,15,216.815,225.615,227.087,28.416,256.414,484.412,228.015,456.026,684.024,not5RN,RN_6
3,rea,ste,1,DMCC8760894,rea_ste_run1_DMCC8760894,NP,5,3,harbor,1600,1,906,1,1,368938,377738,378644,110124,16,258.814,267.614,268.52,28.416,256.414,484.412,228.015,456.026,684.024,LL5NP,NP_5
3,rea,ste,1,DMCC8760894,rea_ste_run1_DMCC8760894,RN,7,1,boat,2800,1,1516,2,2,380938,389738,391254,110124,17,270.814,279.614,281.13,28.416,256.414,484.412,228.015,456.026,684.024,not5RN,RN_7
3,rea,ste,1,DMCC8760894,rea_ste_run1_DMCC8760894,RN,8,2,hour,4000,0,1160,1,2,394138,402938,404098,110124,18,284.014,292.814,293.974,28.416,256.414,484.412,228.015,456.026,684.024,not5RN,RN_8
3,rea,ste,1,DMCC8760894,rea_ste_run1_DMCC8760894,NP,8,3,tongue,2800,0,1557,2,1,408538,417338,418895,110124,19,298.414,307.214,308.771,28.416,256.414,484.412,228.015,456.026,684.024,not5NP,NP_8
3,rea,ste,1,DMCC8760894,rea_ste_run1_DMCC8760894,RN,6,1,beam,1600,1,1987,2,2,421738,430538,432525,110124,20,311.614,320.414,322.401,28.416,256.414,484.412,228.015,456.026,684.024,not5RN,RN_6
3,rea,ste,1,DMCC8760894,rea_ste_run1_DMCC8760894,NN,5,1,ruler,2800,1,793,2,2,433738,442538,443331,110124,21,323.614,332.414,333.207,28.416,256.414,484.412,228.015,456.026,684.024,LL5NN,NN_5
3,rea,ste,1,DMCC8760894,rea_ste_run1_DMCC8760894,NP,5,3,dryer,1600,1,988,1,1,446938,455738,456726,110124,22,336.814,345.614,346.602,28.416,256.414,484.412,228.015,456.026,684.024,LL5NP,NP_5
3,rea,ste,1,DMCC8760894,rea_ste_run1_DMCC8760894,RN,8,2,jazz,2800,0,985,1,2,458938,467738,468723,110124,23,348.814,357.614,358.599,28.416,256.414,484.412,228.015,456.026,684.024,not5RN,RN_8
3,rea,ste,1,DMCC8760894,rea_ste_run1_DMCC8760894,RN,5,2,blaze,4000,1,958,2,2,472138,480937,481895,110124,24,362.014,370.813,371.771,28.416,256.414,484.412,228.015,456.026,684.024,LL5RN,RN_5
3,rea,ste,1,DMCC8760894,rea_ste_run1_DMCC8760894,NP,8,3,visit,1600,0,322,2,1,486537,495337,495659,110124,25,376.413,385.213,385.535,28.416,256.414,484.412,228.015,456.026,684.024,not5NP,NP_8
3,rea,ste,1,DMCC8760894,rea_ste_run1_DMCC8760894,RN,5,2,ideals,4000,1,1569,2,2,498537,507337,508906,110124,26,388.413,397.213,398.782,28.416,256.414,484.412,228.015,456.026,684.024,LL5RN,RN_5
3,rea,ste,1,DMCC8760894,rea_ste_run1_DMCC8760894,NP,5,3,plate,4000,1,1315,1,1,512937,521737,523052,110124,27,402.813,411.613,412.928,28.416,256.414,484.412,228.015,456.026,684.024,LL5NP,NP_5
3,rea,ste,1,DMCC8760894,rea_ste_run1_DMCC8760894,NP,7,2,spark,1600,1,1260,1,1,527337,536137,537397,110124,28,417.213,426.013,427.273,28.416,256.414,484.412,228.015,456.026,684.024,not5NP,NP_7
3,rea,ste,1,DMCC8760894,rea_ste_run1_DMCC8760894,NP,8,3,males,2800,0,1735,2,1,539337,548137,549872,110124,29,429.213,438.013,439.748,28.416,256.414,484.412,228.015,456.026,684.024,not5NP,NP_8
3,rea,ste,1,DMCC8760894,rea_ste_run1_DMCC8760894,NP,7,2,setup,4000,1,1302,1,1,552537,561337,562639,110124,30,442.413,451.213,452.515,28.416,256.414,484.412,228.015,456.026,684.024,not5NP,NP_7
3,rea,ste,1,DMCC8760894,rea_ste_run1_DMCC8760894,NP,5,3,answer,4000,1,794,1,1,596936,605736,606530,110124,31,486.812,495.612,496.406,28.416,256.414,484.412,228.015,456.026,684.024,LL5NP,NP_5
3,rea,ste,1,DMCC8760894,rea_ste_run1_DMCC8760894,RN,5,2,hawk,2800,0,0,,2,611336,620136,0,110124,32,501.212,510.012,-110.124,28.416,256.414,484.412,228.015,456.026,684.024,LL5RN,RN_5
3,rea,ste,1,DMCC8760894,rea_ste_run1_DMCC8760894,NN,8,1,train,1600,1,1303,2,2,624536,633336,634639,110124,33,514.412,523.212,524.515,28.416,256.414,484.412,228.015,456.026,684.024,not5NN,NN_8
3,rea,ste,1,DMCC8760894,rea_ste_run1_DMCC8760894,RN,8,2,poppy,4000,0,1255,1,2,636536,645336,646591,110124,34,526.412,535.212,536.467,28.416,256.414,484.412,228.015,456.026,684.024,not5RN,RN_8
3,rea,ste,1,DMCC8760894,rea_ste_run1_DMCC8760894,RN,7,2,wave,2800,1,1166,2,2,650936,659736,660902,110124,35,540.812,549.612,550.778,28.416,256.414,484.412,228.015,456.026,684.024,not5RN,RN_7
3,rea,ste,1,DMCC8760894,rea_ste_run1_DMCC8760894,RN,8,2,days,2800,0,0,,2,664136,672936,0,110124,36,554.012,562.812,-110.124,28.416,256.414,484.412,228.015,456.026,684.024,not5RN,RN_8
3,rea,ste,1,DMCC8760894,rea_ste_run1_DMCC8760894,RN,7,2,need,1600,0,0,,2,677336,686136,0,110124,37,567.212,576.012,-110.124,28.416,256.414,484.412,228.015,456.026,684.024,not5RN,RN_7
3,rea,ste,1,DMCC8760894,rea_ste_run1_DMCC8760894,NP,5,3,hose,2800,0,0,,1,689336,698136,0,110124,38,579.212,588.012,-110.124,28.416,256.414,484.412,228.015,456.026,684.024,LL5NP,NP_5
3,rea,ste,1,DMCC8760894,rea_ste_run1_DMCC8760894,RN,5,2,drip,1600,1,1606,2,2,702536,711335,712941,110124,39,592.412,601.211,602.817,28.416,256.414,484.412,228.015,456.026,684.024,LL5RN,RN_5
3,rea,ste,1,DMCC8760894,rea_ste_run1_DMCC8760894,NN,5,1,finger,4000,0,0,,2,714535,723335,0,110124,40,604.411,613.211,-110.124,28.416,256.414,484.412,228.015,456.026,684.024,LL5NN,NN_5
3,rea,ste,1,DMCC8760894,rea_ste_run1_DMCC8760894,NP,8,2,charge,1600,1,1252,1,1,728935,737735,738987,110124,41,618.811,627.611,628.863,28.416,256.414,484.412,228.015,456.026,684.024,not5NP,NP_8
3,rea,ste,1,DMCC8760894,rea_ste_run1_DMCC8760894,NP,7,1,drum,4000,1,1111,1,1,740935,749735,750846,110124,42,630.811,639.611,640.722,28.416,256.414,484.412,228.015,456.026,684.024,not5NP,NP_7
3,rea,ste,1,DMCC8760894,rea_ste_run1_DMCC8760894,NP,5,3,spell,1600,0,1691,2,1,755335,764135,765826,110124,43,645.211,654.011,655.702,28.416,256.414,484.412,228.015,456.026,684.024,LL5NP,NP_5
3,rea,ste,1,DMCC8760894,rea_ste_run1_DMCC8760894,NP,6,1,people,2800,0,1138,2,1,767335,776135,777273,110124,44,657.211,666.011,667.149,28.416,256.414,484.412,228.015,456.026,684.024,not5NP,NP_6
3,rea,ste,1,DMCC8760894,rea_ste_run1_DMCC8760894,NP,8,2,rattle,4000,0,0,,1,780535,789335,0,110124,45,670.411,679.211,-110.124,28.416,256.414,484.412,228.015,456.026,684.024,not5NP,NP_8
3,rea,ste,2,DMCC8760894,rea_ste_run2_DMCC8760894,NN,5,1,food,1600,1,1271,2,2,63843,72643,73914,33023,1,30.82,39.62,40.891,28.42,256.418,484.416,228.032,456.03,684.028,LL5NN,NN_5
3,rea,ste,2,DMCC8760894,rea_ste_run2_DMCC8760894,NP,8,2,rider,4000,0,1164,2,1,75843,84643,85807,33023,2,42.82,51.62,52.784,28.42,256.418,484.416,228.032,456.03,684.028,not5NP,NP_8
3,rea,ste,2,DMCC8760894,rea_ste_run2_DMCC8760894,RN,8,2,slug,2800,1,1523,2,2,90243,99043,100566,33023,3,57.22,66.02,67.543,28.42,256.418,484.416,228.032,456.03,684.028,not5RN,RN_8
3,rea,ste,2,DMCC8760894,rea_ste_run2_DMCC8760894,RN,8,2,witch,4000,0,831,1,2,103443,112243,113074,33023,4,70.42,79.22,80.051,28.42,256.418,484.416,228.032,456.03,684.028,not5RN,RN_8
3,rea,ste,2,DMCC8760894,rea_ste_run2_DMCC8760894,RN,5,2,stain,4000,1,977,2,2,117842,126642,127619,33023,5,84.819,93.619,94.596,28.42,256.418,484.416,228.032,456.03,684.028,LL5RN,RN_5
3,rea,ste,2,DMCC8760894,rea_ste_run2_DMCC8760894,NN,7,1,herd,2800,1,1117,2,2,132242,141042,142159,33023,6,99.219,108.019,109.136,28.42,256.418,484.416,228.032,456.03,684.028,not5NN,NN_7
3,rea,ste,2,DMCC8760894,rea_ste_run2_DMCC8760894,NP,7,1,flag,1600,1,1097,1,1,145442,154242,155339,33023,7,112.419,121.219,122.316,28.42,256.418,484.416,228.032,456.03,684.028,not5NP,NP_7
3,rea,ste,2,DMCC8760894,rea_ste_run2_DMCC8760894,RN,6,1,maid,1600,0,1611,1,2,157442,166242,167853,33023,8,124.419,133.219,134.83,28.42,256.418,484.416,228.032,456.03,684.028,not5RN,RN_6
3,rea,ste,2,DMCC8760894,rea_ste_run2_DMCC8760894,NP,6,1,wall,4000,0,1241,2,1,169442,178242,179483,33023,9,136.419,145.219,146.46,28.42,256.418,484.416,228.032,456.03,684.028,not5NP,NP_6
3,rea,ste,2,DMCC8760894,rea_ste_run2_DMCC8760894,NP,5,3,zipper,2800,0,0,,1,183842,192642,0,33023,10,150.819,159.619,-33.023,28.42,256.418,484.416,228.032,456.03,684.028,LL5NP,NP_5
3,rea,ste,2,DMCC8760894,rea_ste_run2_DMCC8760894,RN,5,2,pair,1600,1,1212,2,2,197042,205842,207054,33023,11,164.019,172.819,174.031,28.42,256.418,484.416,228.032,456.03,684.028,LL5RN,RN_5
3,rea,ste,2,DMCC8760894,rea_ste_run2_DMCC8760894,NP,8,2,tree,4000,1,1781,1,1,209042,217842,219623,33023,12,176.019,184.819,186.6,28.42,256.418,484.416,228.032,456.03,684.028,not5NP,NP_8
3,rea,ste,2,DMCC8760894,rea_ste_run2_DMCC8760894,NP,5,3,photo,2800,1,819,1,1,223442,232241,233060,33023,13,190.419,199.218,200.037,28.42,256.418,484.416,228.032,456.03,684.028,LL5NP,NP_5
3,rea,ste,2,DMCC8760894,rea_ste_run2_DMCC8760894,NP,5,3,girl,2800,1,1480,1,1,236641,245441,246921,33023,14,203.618,212.418,213.898,28.42,256.418,484.416,228.032,456.03,684.028,LL5NP,NP_5
3,rea,ste,2,DMCC8760894,rea_ste_run2_DMCC8760894,RN,7,1,quart,1600,0,0,,2,249841,258641,0,33023,15,216.818,225.618,-33.023,28.42,256.418,484.416,228.032,456.03,684.028,not5RN,RN_7
3,rea,ste,2,DMCC8760894,rea_ste_run2_DMCC8760894,NN,8,1,rest,4000,1,836,2,2,291841,300641,301477,33023,16,258.818,267.618,268.454,28.42,256.418,484.416,228.032,456.03,684.028,not5NN,NN_8
3,rea,ste,2,DMCC8760894,rea_ste_run2_DMCC8760894,NP,7,2,singer,2800,1,786,1,1,306241,315041,315827,33023,17,273.218,282.018,282.804,28.42,256.418,484.416,228.032,456.03,684.028,not5NP,NP_7
3,rea,ste,2,DMCC8760894,rea_ste_run2_DMCC8760894,RN,8,2,prince,1600,0,0,,2,319441,328241,0,33023,18,286.418,295.218,-33.023,28.42,256.418,484.416,228.032,456.03,684.028,not5RN,RN_8
3,rea,ste,2,DMCC8760894,rea_ste_run2_DMCC8760894,NP,5,3,pals,1600,0,0,,1,331441,340241,0,33023,19,298.418,307.218,-33.023,28.42,256.418,484.416,228.032,456.03,684.028,LL5NP,NP_5
3,rea,ste,2,DMCC8760894,rea_ste_run2_DMCC8760894,NP,5,3,cotton,2800,0,0,,1,343441,352240,0,33023,20,310.418,319.217,-33.023,28.42,256.418,484.416,228.032,456.03,684.028,LL5NP,NP_5
3,rea,ste,2,DMCC8760894,rea_ste_run2_DMCC8760894,NP,5,3,chest,2800,0,1744,2,1,356640,365440,367184,33023,21,323.617,332.417,334.161,28.42,256.418,484.416,228.032,456.03,684.028,LL5NP,NP_5
3,rea,ste,2,DMCC8760894,rea_ste_run2_DMCC8760894,NP,8,2,dawn,1600,0,1496,2,1,369840,378640,380136,33023,22,336.817,345.617,347.113,28.42,256.418,484.416,228.032,456.03,684.028,not5NP,NP_8
3,rea,ste,2,DMCC8760894,rea_ste_run2_DMCC8760894,RN,5,2,praise,4000,1,1141,2,2,381840,390640,391781,33023,23,348.817,357.617,358.758,28.42,256.418,484.416,228.032,456.03,684.028,LL5RN,RN_5
3,rea,ste,2,DMCC8760894,rea_ste_run2_DMCC8760894,RN,5,2,walker,4000,1,977,2,2,396240,405040,406017,33023,24,363.217,372.017,372.994,28.42,256.418,484.416,228.032,456.03,684.028,LL5RN,RN_5
3,rea,ste,2,DMCC8760894,rea_ste_run2_DMCC8760894,NN,5,1,grass,2800,0,1998,1,2,410640,419440,421438,33023,25,377.617,386.417,388.415,28.42,256.418,484.416,228.032,456.03,684.028,LL5NN,NN_5
3,rea,ste,2,DMCC8760894,rea_ste_run2_DMCC8760894,NP,8,2,charm,2800,0,1149,2,1,423840,432640,433789,33023,26,390.817,399.617,400.766,28.42,256.418,484.416,228.032,456.03,684.028,not5NP,NP_8
3,rea,ste,2,DMCC8760894,rea_ste_run2_DMCC8760894,RN,8,2,barber,1600,0,0,,2,437040,445840,0,33023,27,404.017,412.817,-33.023,28.42,256.418,484.416,228.032,456.03,684.028,not5RN,RN_8
3,rea,ste,2,DMCC8760894,rea_ste_run2_DMCC8760894,RN,6,1,motor,4000,0,0,,2,449040,457840,0,33023,28,416.017,424.817,-33.023,28.42,256.418,484.416,228.032,456.03,684.028,not5RN,RN_6
3,rea,ste,2,DMCC8760894,rea_ste_run2_DMCC8760894,RN,7,1,east,4000,0,0,,2,463439,472239,0,33023,29,430.416,439.216,-33.023,28.42,256.418,484.416,228.032,456.03,684.028,not5RN,RN_7
3,rea,ste,2,DMCC8760894,rea_ste_run2_DMCC8760894,NP,7,2,oats,1600,0,0,,1,477839,486639,0,33023,30,444.816,453.616,-33.023,28.42,256.418,484.416,228.032,456.03,684.028,not5NP,NP_7
3,rea,ste,2,DMCC8760894,rea_ste_run2_DMCC8760894,NP,8,3,slip,4000,0,0,,1,519839,528639,0,33023,31,486.816,495.616,-33.023,28.42,256.418,484.416,228.032,456.03,684.028,not5NP,NP_8
3,rea,ste,2,DMCC8760894,rea_ste_run2_DMCC8760894,RN,7,2,note,4000,1,1925,2,2,534239,543039,544964,33023,32,501.216,510.016,511.941,28.42,256.418,484.416,228.032,456.03,684.028,not5RN,RN_7
3,rea,ste,2,DMCC8760894,rea_ste_run2_DMCC8760894,RN,5,2,tile,1600,1,1241,2,2,548639,557439,558680,33023,33,515.616,524.416,525.657,28.42,256.418,484.416,228.032,456.03,684.028,LL5RN,RN_5
3,rea,ste,2,DMCC8760894,rea_ste_run2_DMCC8760894,NP,5,3,winner,2800,0,0,,1,560639,569439,0,33023,34,527.616,536.416,-33.023,28.42,256.418,484.416,228.032,456.03,684.028,LL5NP,NP_5
