wave,session,task,run,subj,name,word,trial.type,pc,color,iti,time.target.onset.abs,time.scan.start,trial.num,listener1,listener2,cresp,response.final,acc.final,rt,item,time.target.onset,time.rt.abs,time.rt,acc,time.block1.on,time.block2.on,time.block3.on,time.block1.off,time.block2.off,time.block3.off,trialtype,resp
2,bas,stp,1,DMCC8033964,bas_stp_run1_DMCC8033964,RED,Con,bias,red,2400,87425,56713,1,red,red,red,red,1,708.5,redRED,30.712,88133.5,739.212,1,28.419,231.218,434.016,202.833,405.631,608.43,biasCon,red
2,bas,stp,1,DMCC8033964,bas_stp_run1_DMCC8033964,GREEN,InCon,PC50,yellow,1200,92225,56713,2,yellow,yellow,yellow,yellow,1,768.5,yellowGREEN,35.512,92993.5,804.012,1,28.419,231.218,434.016,202.833,405.631,608.43,PC50InCon,yellow
2,bas,stp,1,DMCC8033964,bas_stp_run1_DMCC8033964,PURPLE,Con,bias,purple,3600,95825,56713,3,purple,purple,purple,purple,1,623.5,purplePURPLE,39.112,96448.5,662.612,1,28.419,231.218,434.016,202.833,405.631,608.43,biasCon,purple
2,bas,stp,1,DMCC8033964,bas_stp_run1_DMCC8033964,BLUE,Con,bias,blue,2400,101824,56713,4,blue,blue,blue,blue,1,637,blueBLUE,45.111,102461,682.111,1,28.419,231.218,434.016,202.833,405.631,608.43,biasCon,blue
2,bas,stp,1,DMCC8033964,bas_stp_run1_DMCC8033964,PURPLE,InCon,bias,white,1200,106624,56713,5,white,black,white,white,1,621.5,whitePURPLE,49.911,107245.5,671.411,1,28.419,231.218,434.016,202.833,405.631,608.43,biasInCon,white
2,bas,stp,1,DMCC8033964,bas_stp_run1_DMCC8033964,WHITE,Con,bias,white,3600,110224,56713,6,white,white,white,white,1,651.5,whiteWHITE,53.511,110875.5,705.011,1,28.419,231.218,434.016,202.833,405.631,608.43,biasCon,white
2,bas,stp,1,DMCC8033964,bas_stp_run1_DMCC8033964,BLUE,Con,bias,blue,2400,116223,56713,7,blue,blue,blue,blue,1,646.5,blueBLUE,59.51,116869.5,706.01,1,28.419,231.218,434.016,202.833,405.631,608.43,biasCon,blue
2,bas,stp,1,DMCC8033964,bas_stp_run1_DMCC8033964,YELLOW,Con,PC50,yellow,3600,121023,56713,8,yellow,yellow,yellow,yellow,1,707.5,yellowYELLOW,64.31,121730.5,771.81,1,28.419,231.218,434.016,202.833,405.631,608.43,PC50Con,yellow
2,bas,stp,1,DMCC8033964,bas_stp_run1_DMCC8033964,PURPLE,Con,bias,purple,2400,127036,56713,9,purple,purple,purple,purple,1,626.5,purplePURPLE,70.323,127662.5,696.823,1,28.419,231.218,434.016,202.833,405.631,608.43,biasCon,purple
2,bas,stp,1,DMCC8033964,bas_stp_run1_DMCC8033964,BLUE,InCon,bias,red,3600,131835,56713,10,red,red,red,red,1,740.5,redBLUE,75.122,132575.5,815.622,1,28.419,231.218,434.016,202.833,405.631,608.43,biasInCon,red
2,bas,stp,1,DMCC8033964,bas_stp_run1_DMCC8033964,PURPLE,Con,bias,purple,1200,137835,56713,11,purple,purple,purple,purple,1,622.5,purplePURPLE,81.122,138457.5,703.622,1,28.419,231.218,434.016,202.833,405.631,608.43,biasCon,purple
2,bas,stp,1,DMCC8033964,bas_stp_run1_DMCC8033964,BLACK,InCon,PC50,green,1200,141435,56713,12,green,green,green,green,1,812.5,greenBLACK,84.722,142247.5,897.222,1,28.419,231.218,434.016,202.833,405.631,608.43,PC50InCon,green
2,bas,stp,1,DMCC8033964,bas_stp_run1_DMCC8033964,BLUE,InCon,bias,purple,1200,145034,56713,13,purple,purple,purple,purple,1,768,purpleBLUE,88.321,145802,856.321,1,28.419,231.218,434.016,202.833,405.631,608.43,biasInCon,purple
2,bas,stp,1,DMCC8033964,bas_stp_run1_DMCC8033964,RED,Con,bias,red,1200,148634,56713,14,red,red,red,red,1,823,redRED,91.921,149457,914.921,1,28.419,231.218,434.016,202.833,405.631,608.43,biasCon,red
2,bas,stp,1,DMCC8033964,bas_stp_run1_DMCC8033964,BLUE,Con,bias,blue,3600,152234,56713,15,blue,blue,blue,blue,1,758,blueBLUE,95.521,152992,853.521,1,28.419,231.218,434.016,202.833,405.631,608.43,biasCon,blue
2,bas,stp,1,DMCC8033964,bas_stp_run1_DMCC8033964,PURPLE,InCon,bias,red,3600,158233,56713,16,red,red,red,red,1,818,redPURPLE,101.52,159051,919.52,1,28.419,231.218,434.016,202.833,405.631,608.43,biasInCon,red
2,bas,stp,1,DMCC8033964,bas_stp_run1_DMCC8033964,RED,Con,bias,red,2400,164233,56713,17,red,red,red,red,1,615.5,redRED,107.52,164848.5,723.02,1,28.419,231.218,434.016,202.833,405.631,608.43,biasCon,red
2,bas,stp,1,DMCC8033964,bas_stp_run1_DMCC8033964,BLUE,Con,bias,blue,2400,169033,56713,18,blue,blue,blue,blue,1,704.5,blueBLUE,112.32,169737.5,816.82,1,28.419,231.218,434.016,202.833,405.631,608.43,biasCon,blue
2,bas,stp,1,DMCC8033964,bas_stp_run1_DMCC8033964,YELLOW,InCon,PC50,pink,2400,173832,56713,19,pink,pink,pink,pink,1,701.5,pinkYELLOW,117.119,174533.5,818.619,1,28.419,231.218,434.016,202.833,405.631,608.43,PC50InCon,pink
2,bas,stp,1,DMCC8033964,bas_stp_run1_DMCC8033964,PINK,InCon,PC50,black,3600,178632,56713,20,black,black,black,black,1,1103,blackPINK,121.919,179735,1224.919,1,28.419,231.218,434.016,202.833,405.631,608.43,PC50InCon,black
2,bas,stp,1,DMCC8033964,bas_stp_run1_DMCC8033964,WHITE,Con,bias,white,3600,184631,56713,21,white,white,white,white,1,746,whiteWHITE,127.918,185377,873.918,1,28.419,231.218,434.016,202.833,405.631,608.43,biasCon,white
2,bas,stp,1,DMCC8033964,bas_stp_run1_DMCC8033964,GREEN,InCon,PC50,pink,1200,190631,56713,22,pink,pink,pink,pink,1,983.5,pinkGREEN,133.918,191614.5,1117.418,1,28.419,231.218,434.016,202.833,405.631,608.43,PC50InCon,pink
2,bas,stp,1,DMCC8033964,bas_stp_run1_DMCC8033964,RED,InCon,bias,white,2400,194231,56713,23,white,white,white,white,1,769,whiteRED,137.518,195000,906.518,1,28.419,231.218,434.016,202.833,405.631,608.43,biasInCon,white
2,bas,stp,1,DMCC8033964,bas_stp_run1_DMCC8033964,PURPLE,Con,bias,purple,1200,199030,56713,24,purple,purple,purple,purple,1,653.5,purplePURPLE,142.317,199683.5,795.817,1,28.419,231.218,434.016,202.833,405.631,608.43,biasCon,purple
2,bas,stp,1,DMCC8033964,bas_stp_run1_DMCC8033964,YELLOW,InCon,PC50,black,2400,202630,56713,25,black,black,black,black,1,946,blackYELLOW,145.917,203576,1091.917,1,28.419,231.218,434.016,202.833,405.631,608.43,PC50InCon,black
2,bas,stp,1,DMCC8033964,bas_stp_run1_DMCC8033964,BLUE,Con,bias,blue,1200,207430,56713,26,blue,blue,blue,blue,1,782.5,blueBLUE,150.717,208212.5,933.217,1,28.419,231.218,434.016,202.833,405.631,608.43,biasCon,blue
2,bas,stp,1,DMCC8033964,bas_stp_run1_DMCC8033964,WHITE,Con,bias,white,2400,211030,56713,27,white,white,white,white,1,706,whiteWHITE,154.317,211736,860.317,1,28.419,231.218,434.016,202.833,405.631,608.43,biasCon,white
2,bas,stp,1,DMCC8033964,bas_stp_run1_DMCC8033964,WHITE,InCon,bias,blue,3600,215829,56713,28,blue,blue,blue,blue,1,863,blueWHITE,159.116,216692,1022.116,1,28.419,231.218,434.016,202.833,405.631,608.43,biasInCon,blue
2,bas,stp,1,DMCC8033964,bas_stp_run1_DMCC8033964,WHITE,Con,bias,white,2400,221829,56713,29,white,white,white,white,1,672,whiteWHITE,165.116,222501,837.116,1,28.419,231.218,434.016,202.833,405.631,608.43,biasCon,white
2,bas,stp,1,DMCC8033964,bas_stp_run1_DMCC8033964,GREEN,Con,PC50,green,1200,226628,56713,30,green,green,green,green,1,704,greenGREEN,169.915,227332,873.915,1,28.419,231.218,434.016,202.833,405.631,608.43,PC50Con,green
2,bas,stp,1,DMCC8033964,bas_stp_run1_DMCC8033964,PINK,Con,PC50,pink,3600,230228,56713,31,pink,pink,pink,pink,1,703.5,pinkPINK,173.515,230931.5,877.015,1,28.419,231.218,434.016,202.833,405.631,608.43,PC50Con,pink
2,bas,stp,1,DMCC8033964,bas_stp_run1_DMCC8033964,BLACK,Con,PC50,black,3600,236228,56713,32,black,black,black,black,1,631,blackBLACK,179.515,236859,810.515,1,28.419,231.218,434.016,202.833,405.631,608.43,PC50Con,black
2,bas,stp,1,DMCC8033964,bas_stp_run1_DMCC8033964,GREEN,Con,PC50,green,3600,242227,56713,33,green,green,green,green,1,636,greenGREEN,185.514,242863,821.514,1,28.419,231.218,434.016,202.833,405.631,608.43,PC50Con,green
2,bas,stp,1,DMCC8033964,bas_stp_run1_DMCC8033964,YELLOW,Con,PC50,yellow,1200,248227,56713,34,yellow,yellow,yellow,yellow,1,630.5,yellowYELLOW,191.514,248857.5,822.014,1,28.419,231.218,434.016,202.833,405.631,608.43,PC50Con,yellow
2,bas,stp,1,DMCC8033964,bas_stp_run1_DMCC8033964,PURPLE,Con,bias,purple,1200,251827,56713,35,purple,purple,purple,purple,1,807.5,purplePURPLE,195.114,252634.5,1002.614,1,28.419,231.218,434.016,202.833,405.631,608.43,biasCon,purple
2,bas,stp,1,DMCC8033964,bas_stp_run1_DMCC8033964,RED,Con,bias,red,2400,255426,56713,36,red,red,red,red,1,614.5,redRED,198.713,256040.5,813.213,1,28.419,231.218,434.016,202.833,405.631,608.43,biasCon,red
2,bas,stp,1,DMCC8033964,bas_stp_run1_DMCC8033964,PURPLE,InCon,bias,white,3600,290224,56713,37,white,white,white,white,1,680.5,whitePURPLE,233.511,290904.5,914.011,1,28.419,231.218,434.016,202.833,405.631,608.43,biasInCon,white
2,bas,stp,1,DMCC8033964,bas_stp_run1_DMCC8033964,GREEN,InCon,PC50,pink,1200,296223,56713,38,pink,pink,pink,pink,1,601.5,pinkGREEN,239.51,296824.5,841.01,1,28.419,231.218,434.016,202.833,405.631,608.43,PC50InCon,pink
2,bas,stp,1,DMCC8033964,bas_stp_run1_DMCC8033964,PINK,InCon,PC50,black,2400,299823,56713,39,black,black,black,black,1,784.5,blackPINK,243.11,300607.5,1027.61,1,28.419,231.218,434.016,202.833,405.631,608.43,PC50InCon,black
2,bas,stp,1,DMCC8033964,bas_stp_run1_DMCC8033964,BLUE,Con,bias,blue,1200,304623,56713,40,blue,blue,blue,blue,1,658,blueBLUE,247.91,305281,905.91,1,28.419,231.218,434.016,202.833,405.631,608.43,biasCon,blue
2,bas,stp,1,DMCC8033964,bas_stp_run1_DMCC8033964,BLUE,Con,bias,blue,1200,308236,56713,41,blue,blue,blue,blue,1,777,blueBLUE,251.523,309013,1028.523,1,28.419,231.218,434.016,202.833,405.631,608.43,biasCon,blue
2,bas,stp,1,DMCC8033964,bas_stp_run1_DMCC8033964,YELLOW,InCon,PC50,pink,3600,311835,56713,42,pink,pink,pink,pink,1,710,pinkYELLOW,255.122,312545,965.122,1,28.419,231.218,434.016,202.833,405.631,608.43,PC50InCon,pink
2,bas,stp,1,DMCC8033964,bas_stp_run1_DMCC8033964,YELLOW,Con,PC50,yellow,2400,317835,56713,43,yellow,yellow,yellow,yellow,1,619.5,yellowYELLOW,261.122,318454.5,880.622,1,28.419,231.218,434.016,202.833,405.631,608.43,PC50Con,yellow
2,bas,stp,1,DMCC8033964,bas_stp_run1_DMCC8033964,BLUE,InCon,bias,red,2400,322635,56713,44,red,red,red,red,1,755,redBLUE,265.922,323390,1020.922,1,28.419,231.218,434.016,202.833,405.631,608.43,biasInCon,red
2,bas,stp,1,DMCC8033964,bas_stp_run1_DMCC8033964,BLUE,Con,bias,blue,3600,327434,56713,45,blue,blue,blue,blue,1,711.5,blueBLUE,270.721,328145.5,982.221,1,28.419,231.218,434.016,202.833,405.631,608.43,biasCon,blue
2,bas,stp,1,DMCC8033964,bas_stp_run1_DMCC8033964,WHITE,Con,bias,white,3600,333434,56713,46,white,white,white,white,1,606,whiteWHITE,276.721,334040,882.721,1,28.419,231.218,434.016,202.833,405.631,608.43,biasCon,white
2,bas,stp,1,DMCC8033964,bas_stp_run1_DMCC8033964,GREEN,Con,PC50,green,1200,339433,56713,47,green,green,green,green,1,539,greenGREEN,282.72,339972,821.72,1,28.419,231.218,434.016,202.833,405.631,608.43,PC50Con,green
2,bas,stp,1,DMCC8033964,bas_stp_run1_DMCC8033964,PINK,Con,PC50,pink,2400,343033,56713,48,pink,pink,pink,pink,1,658,pinkPINK,286.32,343691,944.32,1,28.419,231.218,434.016,202.833,405.631,608.43,PC50Con,pink
2,bas,stp,1,DMCC8033964,bas_stp_run1_DMCC8033964,RED,Con,bias,red,3600,347833,56713,49,red,red,red,red,1,604,redRED,291.12,348437,895.12,1,28.419,231.218,434.016,202.833,405.631,608.43,biasCon,red
2,bas,stp,1,DMCC8033964,bas_stp_run1_DMCC8033964,WHITE,Con,bias,white,1200,353832,56713,50,white,white,white,white,1,602.5,whiteWHITE,297.119,354434.5,899.619,1,28.419,231.218,434.016,202.833,405.631,608.43,biasCon,white
2,bas,stp,1,DMCC8033964,bas_stp_run1_DMCC8033964,PURPLE,Con,bias,purple,3600,357432,56713,51,purple,purple,purple,purple,1,652.5,purplePURPLE,300.719,358084.5,953.219,1,28.419,231.218,434.016,202.833,405.631,608.43,biasCon,purple
2,bas,stp,1,DMCC8033964,bas_stp_run1_DMCC8033964,PURPLE,Con,bias,purple,3600,363432,56713,52,purple,purple,purple,purple,1,650.5,purplePURPLE,306.719,364082.5,957.219,1,28.419,231.218,434.016,202.833,405.631,608.43,biasCon,purple
2,bas,stp,1,DMCC8033964,bas_stp_run1_DMCC8033964,RED,InCon,bias,white,2400,369431,56713,53,white,white,white,white,1,739.5,whiteRED,312.718,370170.5,1052.218,1,28.419,231.218,434.016,202.833,405.631,608.43,biasInCon,white
2,bas,stp,1,DMCC8033964,bas_stp_run1_DMCC8033964,YELLOW,InCon,PC50,black,2400,374231,56713,54,black,black,black,black,1,631,blackYELLOW,317.518,374862,948.518,1,28.419,231.218,434.016,202.833,405.631,608.43,PC50InCon,black
2,bas,stp,1,DMCC8033964,bas_stp_run1_DMCC8033964,WHITE,Con,bias,white,1200,379031,56713,55,white,white,white,white,1,646,whiteWHITE,322.318,379677,968.318,1,28.419,231.218,434.016,202.833,405.631,608.43,biasCon,white
2,bas,stp,1,DMCC8033964,bas_stp_run1_DMCC8033964,PURPLE,Con,bias,purple,1200,382630,56713,56,purple,purple,purple,purple,1,719,purplePURPLE,325.917,383349,1044.917,1,28.419,231.218,434.016,202.833,405.631,608.43,biasCon,purple
2,bas,stp,1,DMCC8033964,bas_stp_run1_DMCC8033964,BLUE,Con,bias,blue,3600,386230,56713,57,blue,blue,blue,blue,1,687,blueBLUE,329.517,386917,1016.517,1,28.419,231.218,434.016,202.833,405.631,608.43,biasCon,blue
2,bas,stp,1,DMCC8033964,bas_stp_run1_DMCC8033964,YELLOW,Con,PC50,yellow,2400,392230,56713,58,yellow,yellow,yellow,yellow,1,762.5,yellowYELLOW,335.517,392992.5,1098.017,1,28.419,231.218,434.016,202.833,405.631,608.43,PC50Con,yellow
2,bas,stp,1,DMCC8033964,bas_stp_run1_DMCC8033964,PURPLE,Con,bias,purple,1200,397029,56713,59,purple,purple,purple,purple,1,601.5,purplePURPLE,340.316,397630.5,941.816,1,28.419,231.218,434.016,202.833,405.631,608.43,biasCon,purple
2,bas,stp,1,DMCC8033964,bas_stp_run1_DMCC8033964,WHITE,Con,bias,white,2400,400629,56713,60,white,white,white,white,1,568,whiteWHITE,343.916,401197,911.916,1,28.419,231.218,434.016,202.833,405.631,608.43,biasCon,white
2,bas,stp,1,DMCC8033964,bas_stp_run1_DMCC8033964,WHITE,InCon,bias,blue,1200,405429,56713,61,blue,blue,blue,blue,1,685,blueWHITE,348.716,406114,1033.716,1,28.419,231.218,434.016,202.833,405.631,608.43,biasInCon,blue
2,bas,stp,1,DMCC8033964,bas_stp_run1_DMCC8033964,RED,Con,bias,red,3600,409028,56713,62,red,red,red,red,1,632,redRED,352.315,409660,984.315,1,28.419,231.218,434.016,202.833,405.631,608.43,biasCon,red
2,bas,stp,1,DMCC8033964,bas_stp_run1_DMCC8033964,RED,Con,bias,red,1200,415028,56713,63,red,red,red,red,1,578,redRED,358.315,415606,936.315,1,28.419,231.218,434.016,202.833,405.631,608.43,biasCon,red
2,bas,stp,1,DMCC8033964,bas_stp_run1_DMCC8033964,BLUE,InCon,bias,purple,2400,418628,56713,64,purple,purple,purple,purple,1,841,purpleBLUE,361.915,419469,1202.915,1,28.419,231.218,434.016,202.833,405.631,608.43,biasInCon,purple
2,bas,stp,1,DMCC8033964,bas_stp_run1_DMCC8033964,PURPLE,Con,bias,purple,2400,423427,56713,65,purple,purple,purple,purple,1,608.5,purplePURPLE,366.714,424035.5,975.214,1,28.419,231.218,434.016,202.833,405.631,608.43,biasCon,purple
2,bas,stp,1,DMCC8033964,bas_stp_run1_DMCC8033964,RED,Con,bias,red,3600,428227,56713,66,red,red,red,red,1,636,redRED,371.514,428863,1007.514,1,28.419,231.218,434.016,202.833,405.631,608.43,biasCon,red
2,bas,stp,1,DMCC8033964,bas_stp_run1_DMCC8033964,BLACK,InCon,PC50,green,3600,434226,56713,67,green,green,green,green,1,851.5,greenBLACK,377.513,435077.5,1229.013,1,28.419,231.218,434.016,202.833,405.631,608.43,PC50InCon,green
2,bas,stp,1,DMCC8033964,bas_stp_run1_DMCC8033964,BLUE,Con,bias,blue,1200,440226,56713,68,blue,blue,blue,blue,1,705,blueBLUE,383.513,440931,1088.513,1,28.419,231.218,434.016,202.833,405.631,608.43,biasCon,blue
2,bas,stp,1,DMCC8033964,bas_stp_run1_DMCC8033964,PURPLE,InCon,bias,red,2400,443826,56713,69,red,red,red,red,1,764.5,redPURPLE,387.113,444590.5,1151.613,1,28.419,231.218,434.016,202.833,405.631,608.43,biasInCon,red
2,bas,stp,1,DMCC8033964,bas_stp_run1_DMCC8033964,GREEN,Con,PC50,green,2400,448625,56713,70,green,green,green,green,1,697.5,greenGREEN,391.912,449322.5,1089.412,1,28.419,231.218,434.016,202.833,405.631,608.43,PC50Con,green
2,bas,stp,1,DMCC8033964,bas_stp_run1_DMCC8033964,BLACK,Con,PC50,black,1200,453425,56713,71,black,black,black,black,1,694,blackBLACK,396.712,454119,1090.712,1,28.419,231.218,434.016,202.833,405.631,608.43,PC50Con,black
2,bas,stp,1,DMCC8033964,bas_stp_run1_DMCC8033964,GREEN,InCon,PC50,yellow,3600,457025,56713,72,yellow,yellow,yellow,yellow,1,787.5,yellowGREEN,400.312,457812.5,1187.812,1,28.419,231.218,434.016,202.833,405.631,608.43,PC50InCon,yellow
2,bas,stp,1,DMCC8033964,bas_stp_run1_DMCC8033964,PINK,InCon,PC50,black,3600,493036,56713,73,black,black,black,black,1,780,blackPINK,436.323,493816,1216.323,1,28.419,231.218,434.016,202.833,405.631,608.43,PC50InCon,black
2,bas,stp,1,DMCC8033964,bas_stp_run1_DMCC8033964,RED,Con,bias,red,2400,499035,56713,74,red,red,red,red,1,783.5,redRED,442.322,499818.5,1225.822,1,28.419,231.218,434.016,202.833,405.631,608.43,biasCon,red
2,bas,stp,1,DMCC8033964,bas_stp_run1_DMCC8033964,WHITE,Con,bias,white,2400,503835,56713,75,white,white,white,white,1,758,whiteWHITE,447.122,504593,1205.122,1,28.419,231.218,434.016,202.833,405.631,608.43,biasCon,white
2,bas,stp,1,DMCC8033964,bas_stp_run1_DMCC8033964,WHITE,InCon,bias,blue,2400,508634,56713,76,blue,blue,blue,blue,1,724.5,blueWHITE,451.921,509358.5,1176.421,1,28.419,231.218,434.016,202.833,405.631,608.43,biasInCon,blue
2,bas,stp,1,DMCC8033964,bas_stp_run1_DMCC8033964,WHITE,Con,bias,white,2400,513434,56713,77,white,white,white,white,1,630,whiteWHITE,456.721,514064,1086.721,1,28.419,231.218,434.016,202.833,405.631,608.43,biasCon,white
2,bas,stp,1,DMCC8033964,bas_stp_run1_DMCC8033964,PURPLE,InCon,bias,red,3600,518234,56713,78,red,red,red,red,1,789,redPURPLE,461.521,519023,1250.521,1,28.419,231.218,434.016,202.833,405.631,608.43,biasInCon,red
2,bas,stp,1,DMCC8033964,bas_stp_run1_DMCC8033964,GREEN,Con,PC50,green,3600,524233,56713,79,green,green,green,green,1,699.5,greenGREEN,467.52,524932.5,1167.02,1,28.419,231.218,434.016,202.833,405.631,608.43,PC50Con,green
2,bas,stp,1,DMCC8033964,bas_stp_run1_DMCC8033964,BLUE,Con,bias,blue,1200,530233,56713,80,blue,blue,blue,blue,1,662.5,blueBLUE,473.52,530895.5,1136.02,1,28.419,231.218,434.016,202.833,405.631,608.43,biasCon,blue
2,bas,stp,1,DMCC8033964,bas_stp_run1_DMCC8033964,WHITE,Con,bias,white,1200,533833,56713,81,white,white,white,white,1,652,whiteWHITE,477.12,534485,1129.12,1,28.419,231.218,434.016,202.833,405.631,608.43,biasCon,white
2,bas,stp,1,DMCC8033964,bas_stp_run1_DMCC8033964,RED,Con,bias,red,3600,537432,56713,82,red,red,red,red,1,731.5,redRED,480.719,538163.5,1212.219,1,28.419,231.218,434.016,202.833,405.631,608.43,biasCon,red
2,bas,stp,1,DMCC8033964,bas_stp_run1_DMCC8033964,YELLOW,Con,PC50,yellow,1200,543432,56713,83,yellow,yellow,yellow,yellow,1,645,yellowYELLOW,486.719,544077,1131.719,1,28.419,231.218,434.016,202.833,405.631,608.43,PC50Con,yellow
2,bas,stp,1,DMCC8033964,bas_stp_run1_DMCC8033964,BLUE,Con,bias,blue,1200,547032,56713,84,blue,blue,blue,blue,1,672.5,blueBLUE,490.319,547704.5,1162.819,1,28.419,231.218,434.016,202.833,405.631,608.43,biasCon,blue
2,bas,stp,1,DMCC8033964,bas_stp_run1_DMCC8033964,WHITE,Con,bias,white,3600,550631,56713,85,white,white,white,white,1,697,whiteWHITE,493.918,551328,1190.918,1,28.419,231.218,434.016,202.833,405.631,608.43,biasCon,white
2,bas,stp,1,DMCC8033964,bas_stp_run1_DMCC8033964,GREEN,InCon,PC50,pink,3600,556631,56713,86,pink,pink,pink,pink,1,695,pinkGREEN,499.918,557326,1194.918,1,28.419,231.218,434.016,202.833,405.631,608.43,PC50InCon,pink
2,bas,stp,1,DMCC8033964,bas_stp_run1_DMCC8033964,BLACK,InCon,PC50,green,3600,562630,56713,87,green,green,green,green,1,,greenBLACK,505.917,,,1,28.419,231.218,434.016,202.833,405.631,608.43,PC50InCon,green
2,bas,stp,1,DMCC8033964,bas_stp_run1_DMCC8033964,BLUE,Con,bias,blue,2400,568630,56713,88,blue,blue,blue,blue,1,620.5,blueBLUE,511.917,569250.5,1132.417,1,28.419,231.218,434.016,202.833,405.631,608.43,biasCon,blue
2,bas,stp,1,DMCC8033964,bas_stp_run1_DMCC8033964,PURPLE,Con,bias,purple,2400,573430,56713,89,purple,purple,purple,purple,1,642.5,purplePURPLE,516.717,574072.5,1159.217,1,28.419,231.218,434.016,202.833,405.631,608.43,biasCon,purple
2,bas,stp,1,DMCC8033964,bas_stp_run1_DMCC8033964,BLUE,InCon,bias,red,2400,578229,56713,90,red,red,red,red,1,967,redBLUE,521.516,579196,1488.516,1,28.419,231.218,434.016,202.833,405.631,608.43,biasInCon,red
2,bas,stp,1,DMCC8033964,bas_stp_run1_DMCC8033964,PURPLE,Con,bias,purple,1200,583029,56713,91,purple,purple,purple,purple,1,605,purplePURPLE,526.316,583634,1131.316,1,28.419,231.218,434.016,202.833,405.631,608.43,biasCon,purple
2,bas,stp,1,DMCC8033964,bas_stp_run1_DMCC8033964,PINK,Con,PC50,pink,2400,586629,56713,92,pink,pink,pink,pink,1,,pinkPINK,529.916,,,1,28.419,231.218,434.016,202.833,405.631,608.43,PC50Con,pink
2,bas,stp,1,DMCC8033964,bas_stp_run1_DMCC8033964,RED,InCon,bias,white,1200,591428,56713,93,white,white,white,white,1,656,whiteRED,534.715,592084,1190.715,1,28.419,231.218,434.016,202.833,405.631,608.43,biasInCon,white
2,bas,stp,1,DMCC8033964,bas_stp_run1_DMCC8033964,PURPLE,Con,bias,purple,1200,595028,56713,94,purple,purple,purple,purple,1,608,purplePURPLE,538.315,595636,1146.315,1,28.419,231.218,434.016,202.833,405.631,608.43,biasCon,purple
2,bas,stp,1,DMCC8033964,bas_stp_run1_DMCC8033964,BLACK,Con,PC50,black,3600,598628,56713,95,black,black,black,black,1,810.5,blackBLACK,541.915,599438.5,1352.415,1,28.419,231.218,434.016,202.833,405.631,608.43,PC50Con,black
2,bas,stp,1,DMCC8033964,bas_stp_run1_DMCC8033964,BLUE,Con,bias,blue,1200,604627,56713,96,blue,blue,blue,blue,1,730.5,blueBLUE,547.914,605357.5,1278.414,1,28.419,231.218,434.016,202.833,405.631,608.43,biasCon,blue
2,bas,stp,1,DMCC8033964,bas_stp_run1_DMCC8033964,PURPLE,Con,bias,purple,3600,608227,56713,97,purple,purple,purple,purple,1,642.5,purplePURPLE,551.514,608869.5,1194.014,1,28.419,231.218,434.016,202.833,405.631,608.43,biasCon,purple
2,bas,stp,1,DMCC8033964,bas_stp_run1_DMCC8033964,PURPLE,Con,bias,purple,1200,614227,56713,98,purple,purple,purple,purple,1,636,purplePURPLE,557.514,614863,1193.514,1,28.419,231.218,434.016,202.833,405.631,608.43,biasCon,purple
2,bas,stp,1,DMCC8033964,bas_stp_run1_DMCC8033964,BLUE,InCon,bias,purple,1200,617826,56713,99,purple,purple,purple,purple,1,671,purpleBLUE,561.113,618497,1232.113,1,28.419,231.218,434.016,202.833,405.631,608.43,biasInCon,purple
2,bas,stp,1,DMCC8033964,bas_stp_run1_DMCC8033964,YELLOW,InCon,PC50,pink,3600,621426,56713,100,pink,pink,pink,pink,1,676,pinkYELLOW,564.713,622102,1240.713,1,28.419,231.218,434.016,202.833,405.631,608.43,PC50InCon,pink
2,bas,stp,1,DMCC8033964,bas_stp_run1_DMCC8033964,PURPLE,InCon,bias,white,2400,627426,56713,101,white,white,white,white,1,,whitePURPLE,570.713,,,1,28.419,231.218,434.016,202.833,405.631,608.43,biasInCon,white
2,bas,stp,1,DMCC8033964,bas_stp_run1_DMCC8033964,BLUE,Con,bias,blue,1200,632225,56713,102,blue,blue,blue,blue,1,659,blueBLUE,575.512,632884,1234.512,1,28.419,231.218,434.016,202.833,405.631,608.43,biasCon,blue
2,bas,stp,1,DMCC8033964,bas_stp_run1_DMCC8033964,RED,Con,bias,red,2400,635825,56713,103,red,red,red,red,1,711.5,redRED,579.112,636536.5,1290.612,1,28.419,231.218,434.016,202.833,405.631,608.43,biasCon,red
2,bas,stp,1,DMCC8033964,bas_stp_run1_DMCC8033964,GREEN,InCon,PC50,yellow,3600,640625,56713,104,yellow,yellow,yellow,yellow,1,760.5,yellowGREEN,583.912,641385.5,1344.412,1,28.419,231.218,434.016,202.833,405.631,608.43,PC50InCon,yellow
2,bas,stp,1,DMCC8033964,bas_stp_run1_DMCC8033964,YELLOW,InCon,PC50,black,2400,646624,56713,105,black,black,black,black,1,737,blackYELLOW,589.911,647361,1326.911,1,28.419,231.218,434.016,202.833,405.631,608.43,PC50InCon,black
2,bas,stp,1,DMCC8033964,bas_stp_run1_DMCC8033964,GREEN,Con,PC50,green,3600,651424,56713,106,green,green,green,green,1,690,greenGREEN,594.711,652114,1284.711,1,28.419,231.218,434.016,202.833,405.631,608.43,PC50Con,green
2,bas,stp,1,DMCC8033964,bas_stp_run1_DMCC8033964,YELLOW,Con,PC50,yellow,1200,657423,56713,107,yellow,yellow,yellow,yellow,1,669.5,yellowYELLOW,600.71,658092.5,1270.21,1,28.419,231.218,434.016,202.833,405.631,608.43,PC50Con,yellow
2,bas,stp,1,DMCC8033964,bas_stp_run1_DMCC8033964,RED,Con,bias,red,2400,661023,56713,108,red,red,red,red,1,658,redRED,604.31,661681,1262.31,1,28.419,231.218,434.016,202.833,405.631,608.43,biasCon,red
2,bas,stp,2,DMCC8033964,bas_stp_run2_DMCC8033964,WHITE,Con,bias,white,2400,64156,33438,1,white,white,white,white,1,688.5,whiteWHITE,30.718,64844.5,719.218,1,28.411,231.223,434.022,202.825,405.637,608.436,biasCon,white
2,bas,stp,2,DMCC8033964,bas_stp_run2_DMCC8033964,RED,Con,bias,red,2400,68956,33438,2,red,red,red,red,1,666.5,redRED,35.518,69622.5,702.018,1,28.411,231.223,434.022,202.825,405.637,608.436,biasCon,red
2,bas,stp,2,DMCC8033964,bas_stp_run2_DMCC8033964,GREEN,Con,PC50,green,2400,73755,33438,3,green,green,green,green,1,648.5,greenGREEN,40.317,74403.5,688.817,1,28.411,231.223,434.022,202.825,405.637,608.436,PC50Con,green
2,bas,stp,2,DMCC8033964,bas_stp_run2_DMCC8033964,BLACK,Con,PC50,black,1200,78555,33438,4,black,black,black,black,1,615.5,blackBLACK,45.117,79170.5,660.617,1,28.411,231.223,434.022,202.825,405.637,608.436,PC50Con,black
2,bas,stp,2,DMCC8033964,bas_stp_run2_DMCC8033964,BLUE,Con,bias,blue,1200,82155,33438,5,blue,blue,blue,blue,1,595.5,blueBLUE,48.717,82750.5,644.217,1,28.411,231.223,434.022,202.825,405.637,608.436,biasCon,blue
2,bas,stp,2,DMCC8033964,bas_stp_run2_DMCC8033964,PURPLE,Con,bias,purple,1200,85754,33438,6,purple,purple,purple,purple,1,615.5,purplePURPLE,52.316,86369.5,667.816,1,28.411,231.223,434.022,202.825,405.637,608.436,biasCon,purple
2,bas,stp,2,DMCC8033964,bas_stp_run2_DMCC8033964,RED,Con,bias,red,3600,89354,33438,7,red,red,red,red,1,641,redRED,55.916,89995,696.916,1,28.411,231.223,434.022,202.825,405.637,608.436,biasCon,red
2,bas,stp,2,DMCC8033964,bas_stp_run2_DMCC8033964,WHITE,Con,bias,white,3600,95354,33438,8,white,white,white,white,1,583,whiteWHITE,61.916,95937,644.916,1,28.411,231.223,434.022,202.825,405.637,608.436,biasCon,white
2,bas,stp,2,DMCC8033964,bas_stp_run2_DMCC8033964,BLACK,Con,PC50,black,3600,101353,33438,9,black,black,black,black,1,599,blackBLACK,67.915,101952,666.915,1,28.411,231.223,434.022,202.825,405.637,608.436,PC50Con,black
2,bas,stp,2,DMCC8033964,bas_stp_run2_DMCC8033964,PURPLE,Con,bias,purple,2400,107353,33438,10,purple,purple,purple,purple,1,619.5,purplePURPLE,73.915,107972.5,693.415,1,28.411,231.223,434.022,202.825,405.637,608.436,biasCon,purple
2,bas,stp,2,DMCC8033964,bas_stp_run2_DMCC8033964,RED,Con,bias,red,3600,112152,33438,11,red,red,red,red,1,630,redRED,78.714,112782,708.714,1,28.411,231.223,434.022,202.825,405.637,608.436,biasCon,red
2,bas,stp,2,DMCC8033964,bas_stp_run2_DMCC8033964,GREEN,InCon,PC50,black,1200,118152,33438,12,black,black,black,black,1,673.5,blackGREEN,84.714,118825.5,758.214,1,28.411,231.223,434.022,202.825,405.637,608.436,PC50InCon,black
2,bas,stp,2,DMCC8033964,bas_stp_run2_DMCC8033964,WHITE,InCon,bias,purple,2400,121752,33438,13,purple,purple,purple,purple,1,726,purpleWHITE,88.314,122478,814.314,1,28.411,231.223,434.022,202.825,405.637,608.436,biasInCon,purple
2,bas,stp,2,DMCC8033964,bas_stp_run2_DMCC8033964,WHITE,InCon,bias,red,3600,126551,33438,14,red,red,red,red,1,697.5,redWHITE,93.113,127248.5,790.613,1,28.411,231.223,434.022,202.825,405.637,608.436,biasInCon,red
2,bas,stp,2,DMCC8033964,bas_stp_run2_DMCC8033964,PURPLE,InCon,bias,blue,2400,132551,33438,15,blue,blue,blue,blue,1,960.5,bluePURPLE,99.113,133511.5,1059.613,1,28.411,231.223,434.022,202.825,405.637,608.436,biasInCon,blue
2,bas,stp,2,DMCC8033964,bas_stp_run2_DMCC8033964,WHITE,Con,bias,white,3600,137351,33438,16,white,white,white,white,1,826.5,whiteWHITE,103.913,138177.5,930.413,1,28.411,231.223,434.022,202.825,405.637,608.436,biasCon,white
2,bas,stp,2,DMCC8033964,bas_stp_run2_DMCC8033964,PINK,Con,PC50,pink,2400,143350,33438,17,pink,pink,pink,pink,1,647.5,pinkPINK,109.912,143997.5,757.412,1,28.411,231.223,434.022,202.825,405.637,608.436,PC50Con,pink
2,bas,stp,2,DMCC8033964,bas_stp_run2_DMCC8033964,PURPLE,Con,bias,purple,1200,148150,33438,18,purple,purple,purple,purple,1,620.5,purplePURPLE,114.712,148770.5,735.212,1,28.411,231.223,434.022,202.825,405.637,608.436,biasCon,purple
2,bas,stp,2,DMCC8033964,bas_stp_run2_DMCC8033964,RED,Con,bias,red,1200,151749,33438,19,red,red,red,red,1,682.5,redRED,118.311,152431.5,800.811,1,28.411,231.223,434.022,202.825,405.637,608.436,biasCon,red
2,bas,stp,2,DMCC8033964,bas_stp_run2_DMCC8033964,BLUE,Con,bias,blue,2400,155349,33438,20,blue,blue,blue,blue,1,676.5,blueBLUE,121.911,156025.5,798.411,1,28.411,231.223,434.022,202.825,405.637,608.436,biasCon,blue
2,bas,stp,2,DMCC8033964,bas_stp_run2_DMCC8033964,BLUE,Con,bias,blue,1200,160149,33438,21,blue,blue,blue,blue,1,630,blueBLUE,126.711,160779,756.711,1,28.411,231.223,434.022,202.825,405.637,608.436,biasCon,blue
2,bas,stp,2,DMCC8033964,bas_stp_run2_DMCC8033964,BLUE,InCon,bias,white,3600,163749,33438,22,white,white,white,white,1,738.5,whiteBLUE,130.311,164487.5,868.811,1,28.411,231.223,434.022,202.825,405.637,608.436,biasInCon,white
2,bas,stp,2,DMCC8033964,bas_stp_run2_DMCC8033964,YELLOW,InCon,PC50,green,1200,169761,33438,23,green,green,green,green,1,902,greenYELLOW,136.323,170663,1038.323,1,28.411,231.223,434.022,202.825,405.637,608.436,PC50InCon,green
2,bas,stp,2,DMCC8033964,bas_stp_run2_DMCC8033964,PINK,InCon,PC50,green,3600,173361,33438,24,green,green,green,green,1,763,greenPINK,139.923,174124,902.923,1,28.411,231.223,434.022,202.825,405.637,608.436,PC50InCon,green
2,bas,stp,2,DMCC8033964,bas_stp_run2_DMCC8033964,YELLOW,Con,PC50,yellow,3600,179361,33438,25,yellow,yellow,yellow,yellow,1,783.5,yellowYELLOW,145.923,180144.5,929.423,1,28.411,231.223,434.022,202.825,405.637,608.436,PC50Con,yellow
2,bas,stp,2,DMCC8033964,bas_stp_run2_DMCC8033964,WHITE,Con,bias,white,1200,185360,33438,26,white,white,white,white,1,640,whiteWHITE,151.922,186000,791.922,1,28.411,231.223,434.022,202.825,405.637,608.436,biasCon,white
2,bas,stp,2,DMCC8033964,bas_stp_run2_DMCC8033964,RED,Con,bias,red,3600,188960,33438,27,red,red,red,red,1,733,redRED,155.522,189693,888.522,1,28.411,231.223,434.022,202.825,405.637,608.436,biasCon,red
2,bas,stp,2,DMCC8033964,bas_stp_run2_DMCC8033964,BLACK,InCon,PC50,yellow,1200,194960,33438,28,yellow,yellow,yellow,yellow,1,752,yellowBLACK,161.522,195712,913.522,1,28.411,231.223,434.022,202.825,405.637,608.436,PC50InCon,yellow
2,bas,stp,2,DMCC8033964,bas_stp_run2_DMCC8033964,BLACK,InCon,PC50,pink,2400,198559,33438,29,pink,pink,pink,pink,1,761,pinkBLACK,165.121,199320,926.121,1,28.411,231.223,434.022,202.825,405.637,608.436,PC50InCon,pink
2,bas,stp,2,DMCC8033964,bas_stp_run2_DMCC8033964,RED,InCon,bias,blue,1200,203359,33438,30,blue,blue,blue,blue,1,750,blueRED,169.921,204109,919.921,1,28.411,231.223,434.022,202.825,405.637,608.436,biasInCon,blue
2,bas,stp,2,DMCC8033964,bas_stp_run2_DMCC8033964,PURPLE,Con,bias,purple,2400,206959,33438,31,purple,purple,purple,purple,1,742,purplePURPLE,173.521,207701,915.521,1,28.411,231.223,434.022,202.825,405.637,608.436,biasCon,purple
2,bas,stp,2,DMCC8033964,bas_stp_run2_DMCC8033964,PINK,InCon,PC50,yellow,2400,211758,33438,32,yellow,yellow,yellow,yellow,1,785,yellowPINK,178.32,212543,963.32,1,28.411,231.223,434.022,202.825,405.637,608.436,PC50InCon,yellow
2,bas,stp,2,DMCC8033964,bas_stp_run2_DMCC8033964,RED,InCon,bias,purple,3600,216558,33438,33,purple,purple,purple,purple,1,725,purpleRED,183.12,217283,908.12,1,28.411,231.223,434.022,202.825,405.637,608.436,biasInCon,purple
2,bas,stp,2,DMCC8033964,bas_stp_run2_DMCC8033964,PINK,Con,PC50,pink,2400,222558,33438,34,pink,pink,pink,pink,1,710.5,pinkPINK,189.12,223268.5,899.62,1,28.411,231.223,434.022,202.825,405.637,608.436,PC50Con,pink
2,bas,stp,2,DMCC8033964,bas_stp_run2_DMCC8033964,BLUE,Con,bias,blue,1200,227357,33438,35,blue,blue,blue,blue,1,771.5,blueBLUE,193.919,228128.5,965.419,1,28.411,231.223,434.022,202.825,405.637,608.436,biasCon,blue
2,bas,stp,2,DMCC8033964,bas_stp_run2_DMCC8033964,WHITE,Con,bias,white,3600,230957,33438,36,white,white,white,white,1,756,whiteWHITE,197.519,231713,953.519,1,28.411,231.223,434.022,202.825,405.637,608.436,biasCon,white
2,bas,stp,2,DMCC8033964,bas_stp_run2_DMCC8033964,PURPLE,Con,bias,purple,3600,266954,33438,37,purple,purple,purple,purple,1,711.5,purplePURPLE,233.516,267665.5,945.016,1,28.411,231.223,434.022,202.825,405.637,608.436,biasCon,purple
2,bas,stp,2,DMCC8033964,bas_stp_run2_DMCC8033964,WHITE,InCon,bias,red,2400,272954,33438,38,red,red,red,red,1,790,redWHITE,239.516,273744,1029.516,1,28.411,231.223,434.022,202.825,405.637,608.436,biasInCon,red
2,bas,stp,2,DMCC8033964,bas_stp_run2_DMCC8033964,PURPLE,InCon,bias,blue,1200,277754,33438,39,blue,blue,blue,blue,1,829.5,bluePURPLE,244.316,278583.5,1073.816,1,28.411,231.223,434.022,202.825,405.637,608.436,biasInCon,blue
2,bas,stp,2,DMCC8033964,bas_stp_run2_DMCC8033964,PINK,Con,PC50,pink,2400,281353,33438,40,pink,pink,pink,pink,1,728,pinkPINK,247.915,282081,975.915,1,28.411,231.223,434.022,202.825,405.637,608.436,PC50Con,pink
2,bas,stp,2,DMCC8033964,bas_stp_run2_DMCC8033964,YELLOW,InCon,PC50,green,3600,286153,33438,41,green,green,green,green,1,723,greenYELLOW,252.715,286876,975.715,1,28.411,231.223,434.022,202.825,405.637,608.436,PC50InCon,green
2,bas,stp,2,DMCC8033964,bas_stp_run2_DMCC8033964,RED,Con,bias,red,3600,292153,33438,42,red,red,red,red,1,692,redRED,258.715,292845,950.715,1,28.411,231.223,434.022,202.825,405.637,608.436,biasCon,red
2,bas,stp,2,DMCC8033964,bas_stp_run2_DMCC8033964,WHITE,Con,bias,white,1200,298152,33438,43,white,white,white,white,1,651.5,whiteWHITE,264.714,298803.5,916.214,1,28.411,231.223,434.022,202.825,405.637,608.436,biasCon,white
2,bas,stp,2,DMCC8033964,bas_stp_run2_DMCC8033964,BLACK,Con,PC50,black,1200,301752,33438,44,black,black,black,black,1,741,blackBLACK,268.314,302493,1009.314,1,28.411,231.223,434.022,202.825,405.637,608.436,PC50Con,black
2,bas,stp,2,DMCC8033964,bas_stp_run2_DMCC8033964,BLUE,Con,bias,blue,3600,305352,33438,45,blue,blue,blue,blue,1,762,blueBLUE,271.914,306114,1033.914,1,28.411,231.223,434.022,202.825,405.637,608.436,biasCon,blue
2,bas,stp,2,DMCC8033964,bas_stp_run2_DMCC8033964,BLUE,Con,bias,blue,1200,311351,33438,46,blue,blue,blue,blue,1,748.5,blueBLUE,277.913,312099.5,1026.413,1,28.411,231.223,434.022,202.825,405.637,608.436,biasCon,blue
2,bas,stp,2,DMCC8033964,bas_stp_run2_DMCC8033964,BLACK,InCon,PC50,yellow,2400,314951,33438,47,yellow,yellow,yellow,yellow,1,667,yellowBLACK,281.513,315618,948.513,1,28.411,231.223,434.022,202.825,405.637,608.436,PC50InCon,yellow
2,bas,stp,2,DMCC8033964,bas_stp_run2_DMCC8033964,RED,InCon,bias,purple,2400,319750,33438,48,purple,purple,purple,purple,1,844.5,purpleRED,286.312,320594.5,1130.812,1,28.411,231.223,434.022,202.825,405.637,608.436,biasInCon,purple
2,bas,stp,2,DMCC8033964,bas_stp_run2_DMCC8033964,WHITE,Con,bias,white,2400,324550,33438,49,white,white,white,white,1,616.5,whiteWHITE,291.112,325166.5,907.612,1,28.411,231.223,434.022,202.825,405.637,608.436,biasCon,white
2,bas,stp,2,DMCC8033964,bas_stp_run2_DMCC8033964,RED,Con,bias,red,3600,329350,33438,50,red,red,red,red,1,601,redRED,295.912,329951,896.912,1,28.411,231.223,434.022,202.825,405.637,608.436,biasCon,red
2,bas,stp,2,DMCC8033964,bas_stp_run2_DMCC8033964,PURPLE,Con,bias,purple,3600,335349,33438,51,purple,purple,purple,purple,1,914,purplePURPLE,301.911,336263,1215.911,1,28.411,231.223,434.022,202.825,405.637,608.436,biasCon,purple
2,bas,stp,2,DMCC8033964,bas_stp_run2_DMCC8033964,BLUE,InCon,bias,white,1200,341349,33438,52,white,white,white,white,1,634,whiteBLUE,307.911,341983,941.911,1,28.411,231.223,434.022,202.825,405.637,608.436,biasInCon,white
2,bas,stp,2,DMCC8033964,bas_stp_run2_DMCC8033964,PINK,InCon,PC50,green,2400,344949,33438,53,green,green,green,green,1,760,greenPINK,311.511,345709,1071.511,1,28.411,231.223,434.022,202.825,405.637,608.436,PC50InCon,green
2,bas,stp,2,DMCC8033964,bas_stp_run2_DMCC8033964,WHITE,Con,bias,white,2400,349762,33438,54,white,white,white,white,1,675,whiteWHITE,316.324,350437,991.324,1,28.411,231.223,434.022,202.825,405.637,608.436,biasCon,white
2,bas,stp,2,DMCC8033964,bas_stp_run2_DMCC8033964,PINK,InCon,PC50,yellow,2400,354561,33438,55,yellow,yellow,yellow,yellow,1,706.5,yellowPINK,321.123,355267.5,1027.623,1,28.411,231.223,434.022,202.825,405.637,608.436,PC50InCon,yellow
2,bas,stp,2,DMCC8033964,bas_stp_run2_DMCC8033964,PURPLE,Con,bias,purple,3600,359361,33438,56,purple,purple,purple,purple,1,712.5,purplePURPLE,325.923,360073.5,1038.423,1,28.411,231.223,434.022,202.825,405.637,608.436,biasCon,purple
2,bas,stp,2,DMCC8033964,bas_stp_run2_DMCC8033964,BLACK,InCon,PC50,pink,1200,365360,33438,57,pink,pink,pink,pink,1,723,pinkBLACK,331.922,366083,1054.922,1,28.411,231.223,434.022,202.825,405.637,608.436,PC50InCon,pink
2,bas,stp,2,DMCC8033964,bas_stp_run2_DMCC8033964,WHITE,Con,bias,white,1200,368960,33438,58,white,white,white,white,1,687,whiteWHITE,335.522,369647,1022.522,1,28.411,231.223,434.022,202.825,405.637,608.436,biasCon,white
2,bas,stp,2,DMCC8033964,bas_stp_run2_DMCC8033964,RED,Con,bias,red,3600,372560,33438,59,red,red,red,red,1,836,redRED,339.122,373396,1175.122,1,28.411,231.223,434.022,202.825,405.637,608.436,biasCon,red
2,bas,stp,2,DMCC8033964,bas_stp_run2_DMCC8033964,YELLOW,Con,PC50,yellow,1200,378560,33438,60,yellow,yellow,yellow,yellow,1,715.5,yellowYELLOW,345.122,379275.5,1060.622,1,28.411,231.223,434.022,202.825,405.637,608.436,PC50Con,yellow
2,bas,stp,2,DMCC8033964,bas_stp_run2_DMCC8033964,BLUE,Con,bias,blue,3600,382159,33438,61,blue,blue,blue,blue,1,687.5,blueBLUE,348.721,382846.5,1036.221,1,28.411,231.223,434.022,202.825,405.637,608.436,biasCon,blue
2,bas,stp,2,DMCC8033964,bas_stp_run2_DMCC8033964,BLUE,Con,bias,blue,1200,388159,33438,62,blue,blue,blue,blue,1,667,blueBLUE,354.721,388826,1021.721,1,28.411,231.223,434.022,202.825,405.637,608.436,biasCon,blue
2,bas,stp,2,DMCC8033964,bas_stp_run2_DMCC8033964,PINK,Con,PC50,pink,3600,391759,33438,63,pink,pink,pink,pink,1,742,pinkPINK,358.321,392501,1100.321,1,28.411,231.223,434.022,202.825,405.637,608.436,PC50Con,pink
2,bas,stp,2,DMCC8033964,bas_stp_run2_DMCC8033964,RED,InCon,bias,blue,2400,397758,33438,64,blue,blue,blue,blue,1,709.5,blueRED,364.32,398467.5,1073.82,1,28.411,231.223,434.022,202.825,405.637,608.436,biasInCon,blue
2,bas,stp,2,DMCC8033964,bas_stp_run2_DMCC8033964,WHITE,Con,bias,white,1200,402558,33438,65,white,white,white,white,1,643.5,whiteWHITE,369.12,403201.5,1012.62,1,28.411,231.223,434.022,202.825,405.637,608.436,biasCon,white
2,bas,stp,2,DMCC8033964,bas_stp_run2_DMCC8033964,GREEN,InCon,PC50,black,1200,406157,33438,66,black,black,black,black,1,732,blackGREEN,372.719,406889,1104.719,1,28.411,231.223,434.022,202.825,405.637,608.436,PC50InCon,black
2,bas,stp,2,DMCC8033964,bas_stp_run2_DMCC8033964,PURPLE,Con,bias,purple,2400,409757,33438,67,purple,purple,purple,purple,1,851.5,purplePURPLE,376.319,410608.5,1227.819,1,28.411,231.223,434.022,202.825,405.637,608.436,biasCon,purple
2,bas,stp,2,DMCC8033964,bas_stp_run2_DMCC8033964,GREEN,Con,PC50,green,2400,414557,33438,68,green,green,green,green,1,687,greenGREEN,381.119,415244,1068.119,1,28.411,231.223,434.022,202.825,405.637,608.436,PC50Con,green
2,bas,stp,2,DMCC8033964,bas_stp_run2_DMCC8033964,BLACK,Con,PC50,black,3600,419357,33438,69,black,black,black,black,1,710,blackBLACK,385.919,420067,1095.919,1,28.411,231.223,434.022,202.825,405.637,608.436,PC50Con,black
2,bas,stp,2,DMCC8033964,bas_stp_run2_DMCC8033964,RED,Con,bias,red,1200,425356,33438,70,red,red,red,red,1,630,redRED,391.918,425986,1021.918,1,28.411,231.223,434.022,202.825,405.637,608.436,biasCon,red
2,bas,stp,2,DMCC8033964,bas_stp_run2_DMCC8033964,RED,Con,bias,red,3600,428956,33438,71,red,red,red,red,1,724,redRED,395.518,429680,1119.518,1,28.411,231.223,434.022,202.825,405.637,608.436,biasCon,red
2,bas,stp,2,DMCC8033964,bas_stp_run2_DMCC8033964,WHITE,InCon,bias,purple,2400,434955,33438,72,purple,purple,purple,purple,1,696.5,purpleWHITE,401.517,435651.5,1098.017,1,28.411,231.223,434.022,202.825,405.637,608.436,biasInCon,purple
2,bas,stp,2,DMCC8033964,bas_stp_run2_DMCC8033964,BLACK,Con,PC50,black,2400,469753,33438,73,black- faint,black,black,black,1,658,blackBLACK,436.315,470411,1094.315,1,28.411,231.223,434.022,202.825,405.637,608.436,PC50Con,black
2,bas,stp,2,DMCC8033964,bas_stp_run2_DMCC8033964,PINK,Con,PC50,pink,1200,474552,33438,74,pink,pink,pink,pink,1,,pinkPINK,441.114,,,1,28.411,231.223,434.022,202.825,405.637,608.436,PC50Con,pink
2,bas,stp,2,DMCC8033964,bas_stp_run2_DMCC8033964,RED,Con,bias,red,1200,478152,33438,75,red,red,red,red,1,718.5,redRED,444.714,478870.5,1163.214,1,28.411,231.223,434.022,202.825,405.637,608.436,biasCon,red
2,bas,stp,2,DMCC8033964,bas_stp_run2_DMCC8033964,WHITE,InCon,bias,purple,2400,481752,33438,76,purple,purple,purple,purple,1,681,purpleWHITE,448.314,482433,1129.314,1,28.411,231.223,434.022,202.825,405.637,608.436,biasInCon,purple
2,bas,stp,2,DMCC8033964,bas_stp_run2_DMCC8033964,GREEN,InCon,PC50,black,1200,486552,33438,77,black,black,black,black,1,683.5,blackGREEN,453.114,487235.5,1136.614,1,28.411,231.223,434.022,202.825,405.637,608.436,PC50InCon,black
2,bas,stp,2,DMCC8033964,bas_stp_run2_DMCC8033964,PURPLE,Con,bias,purple,3600,490151,33438,78,purple,purple,purple,purple,1,673,purplePURPLE,456.713,490824,1129.713,1,28.411,231.223,434.022,202.825,405.637,608.436,biasCon,purple
2,bas,stp,2,DMCC8033964,bas_stp_run2_DMCC8033964,PURPLE,InCon,bias,blue,3600,496151,33438,79,blue,blue,blue,blue,1,760,bluePURPLE,462.713,496911,1222.713,1,28.411,231.223,434.022,202.825,405.637,608.436,biasInCon,blue
2,bas,stp,2,DMCC8033964,bas_stp_run2_DMCC8033964,YELLOW,Con,PC50,yellow,2400,502150,33438,80,yellow,yellow,yellow,yellow,1,601,yellowYELLOW,468.712,502751,1069.712,1,28.411,231.223,434.022,202.825,405.637,608.436,PC50Con,yellow
2,bas,stp,2,DMCC8033964,bas_stp_run2_DMCC8033964,BLUE,Con,bias,blue,3600,506950,33438,81,blue,blue,blue,blue,1,672,blueBLUE,473.512,507622,1145.512,1,28.411,231.223,434.022,202.825,405.637,608.436,biasCon,blue
2,bas,stp,2,DMCC8033964,bas_stp_run2_DMCC8033964,PURPLE,Con,bias,purple,2400,512950,33438,82,purple,purple,purple,purple,1,645.5,purplePURPLE,479.512,513595.5,1125.012,1,28.411,231.223,434.022,202.825,405.637,608.436,biasCon,purple
2,bas,stp,2,DMCC8033964,bas_stp_run2_DMCC8033964,RED,Con,bias,red,3600,517749,33438,83,red,red,red,red,1,697,redRED,484.311,518446,1181.311,1,28.411,231.223,434.022,202.825,405.637,608.436,biasCon,red
2,bas,stp,2,DMCC8033964,bas_stp_run2_DMCC8033964,PURPLE,Con,bias,purple,1200,523749,33438,84,purple,purple,purple,purple,1,597,purplePURPLE,490.311,524346,1087.311,1,28.411,231.223,434.022,202.825,405.637,608.436,biasCon,purple
2,bas,stp,2,DMCC8033964,bas_stp_run2_DMCC8033964,YELLOW,InCon,PC50,green,1200,527349,33438,85,green,green,green,green,1,851,greenYELLOW,493.911,528200,1344.911,1,28.411,231.223,434.022,202.825,405.637,608.436,PC50InCon,green
2,bas,stp,2,DMCC8033964,bas_stp_run2_DMCC8033964,BLACK,Con,PC50,black,2400,530962,33438,86,black,black,black,black,1,690.5,blackBLACK,497.524,531652.5,1188.024,1,28.411,231.223,434.022,202.825,405.637,608.436,PC50Con,black
2,bas,stp,2,DMCC8033964,bas_stp_run2_DMCC8033964,BLACK,InCon,PC50,yellow,1200,535761,33438,87,yellow,yellow,yellow,yellow,1,687.5,yellowBLACK,502.323,536448.5,1189.823,1,28.411,231.223,434.022,202.825,405.637,608.436,PC50InCon,yellow
2,bas,stp,2,DMCC8033964,bas_stp_run2_DMCC8033964,PINK,Con,PC50,pink,1200,539361,33438,88,pink,pink,pink,pink,1,444,pinkPINK,505.923,539805,949.923,1,28.411,231.223,434.022,202.825,405.637,608.436,PC50Con,pink
2,bas,stp,2,DMCC8033964,bas_stp_run2_DMCC8033964,WHITE,Con,bias,white,3600,542961,33438,89,white,white,white,white,1,679.5,whiteWHITE,509.523,543640.5,1189.023,1,28.411,231.223,434.022,202.825,405.637,608.436,biasCon,white
2,bas,stp,2,DMCC8033964,bas_stp_run2_DMCC8033964,BLUE,Con,bias,blue,2400,548960,33438,90,blue,blue,blue,blue,1,789.5,blueBLUE,515.522,549749.5,1305.022,1,28.411,231.223,434.022,202.825,405.637,608.436,biasCon,blue
2,bas,stp,2,DMCC8033964,bas_stp_run2_DMCC8033964,PINK,InCon,PC50,yellow,2400,553760,33438,91,yellow,yellow,yellow,yellow,1,701.5,yellowPINK,520.322,554461.5,1221.822,1,28.411,231.223,434.022,202.825,405.637,608.436,PC50InCon,yellow
2,bas,stp,2,DMCC8033964,bas_stp_run2_DMCC8033964,BLUE,InCon,bias,white,1200,558560,33438,92,white,white,white,white,1,738.5,whiteBLUE,525.122,559298.5,1263.622,1,28.411,231.223,434.022,202.825,405.637,608.436,biasInCon,white
2,bas,stp,2,DMCC8033964,bas_stp_run2_DMCC8033964,GREEN,Con,PC50,green,2400,562159,33438,93,green,green,green,green,1,782.5,greenGREEN,528.721,562941.5,1311.221,1,28.411,231.223,434.022,202.825,405.637,608.436,PC50Con,green
2,bas,stp,2,DMCC8033964,bas_stp_run2_DMCC8033964,RED,Con,bias,red,3600,566959,33438,94,red,red,red,red,1,633,redRED,533.521,567592,1166.521,1,28.411,231.223,434.022,202.825,405.637,608.436,biasCon,red
2,bas,stp,2,DMCC8033964,bas_stp_run2_DMCC8033964,RED,Con,bias,red,3600,572959,33438,95,red,red,red,red,1,705,redRED,539.521,573664,1244.521,1,28.411,231.223,434.022,202.825,405.637,608.436,biasCon,red
2,bas,stp,2,DMCC8033964,bas_stp_run2_DMCC8033964,PURPLE,Con,bias,purple,3600,578958,33438,96,purple,purple,purple,purple,1,734.5,purplePURPLE,545.52,579692.5,1280.02,1,28.411,231.223,434.022,202.825,405.637,608.436,biasCon,purple
2,bas,stp,2,DMCC8033964,bas_stp_run2_DMCC8033964,WHITE,Con,bias,white,2400,584958,33438,97,white,white,white,white,1,678.5,whiteWHITE,551.52,585636.5,1230.02,1,28.411,231.223,434.022,202.825,405.637,608.436,biasCon,white
2,bas,stp,2,DMCC8033964,bas_stp_run2_DMCC8033964,BLUE,Con,bias,blue,3600,589757,33438,98,blue,blue,blue,blue,1,661,blueBLUE,556.319,590418,1217.319,1,28.411,231.223,434.022,202.825,405.637,608.436,biasCon,blue
2,bas,stp,2,DMCC8033964,bas_stp_run2_DMCC8033964,RED,Con,bias,red,3600,595757,33438,99,red,red,red,red,1,670,redRED,562.319,596427,1232.319,1,28.411,231.223,434.022,202.825,405.637,608.436,biasCon,red
2,bas,stp,2,DMCC8033964,bas_stp_run2_DMCC8033964,RED,InCon,bias,blue,1200,601756,33438,100,blue,blue,blue,blue,1,762,blueRED,568.318,602518,1330.318,1,28.411,231.223,434.022,202.825,405.637,608.436,biasInCon,blue
2,bas,stp,2,DMCC8033964,bas_stp_run2_DMCC8033964,WHITE,Con,bias,white,3600,605356,33438,101,white,white,white,white,1,733,whiteWHITE,571.918,606089,1304.918,1,28.411,231.223,434.022,202.825,405.637,608.436,biasCon,white
2,bas,stp,2,DMCC8033964,bas_stp_run2_DMCC8033964,RED,InCon,bias,purple,2400,611356,33438,102,purple,purple,purple,purple,1,766,purpleRED,577.918,612122,1343.918,1,28.411,231.223,434.022,202.825,405.637,608.436,biasInCon,purple
2,bas,stp,2,DMCC8033964,bas_stp_run2_DMCC8033964,BLUE,Con,bias,blue,3600,616155,33438,103,blue,blue,blue,blue,1,753,blueBLUE,582.717,616908,1335.717,1,28.411,231.223,434.022,202.825,405.637,608.436,biasCon,blue
2,bas,stp,2,DMCC8033964,bas_stp_run2_DMCC8033964,WHITE,InCon,bias,red,1200,622155,33438,104,red,red,red,red,1,757,redWHITE,588.717,622912,1345.717,1,28.411,231.223,434.022,202.825,405.637,608.436,biasInCon,red
2,bas,stp,2,DMCC8033964,bas_stp_run2_DMCC8033964,WHITE,Con,bias,white,1200,625755,33438,105,white,white,white,white,1,732,whiteWHITE,592.317,626487,1324.317,1,28.411,231.223,434.022,202.825,405.637,608.436,biasCon,white
2,bas,stp,2,DMCC8033964,bas_stp_run2_DMCC8033964,PINK,InCon,PC50,green,2400,629354,33438,106,green,green,green,green,1,823.5,greenPINK,595.916,630177.5,1419.416,1,28.411,231.223,434.022,202.825,405.637,608.436,PC50InCon,green
2,bas,stp,2,DMCC8033964,bas_stp_run2_DMCC8033964,WHITE,Con,bias,white,1200,634154,33438,107,white,white,white,white,1,751,whiteWHITE,600.716,634905,1351.716,1,28.411,231.223,434.022,202.825,405.637,608.436,biasCon,white
2,bas,stp,2,DMCC8033964,bas_stp_run2_DMCC8033964,BLACK,InCon,PC50,pink,2400,637754,33438,108,pink,pink,pink,pink,1,699,pinkBLACK,604.316,638453,1303.316,1,28.411,231.223,434.022,202.825,405.637,608.436,PC50InCon,pink
2,pro,stp,1,DMCC8033964,pro_stp_run1_DMCC8033964,PINK,InCon,PC50,black,2400,86836,56124,1,black,black,black,black,1,738.5,blackPINK,30.712,87574.5,769.212,1,28.419,231.22,434.02,202.835,405.635,608.436,PC50InCon,black
2,pro,stp,1,DMCC8033964,pro_stp_run1_DMCC8033964,BLUE,InCon,bias,white,3600,91636,56124,2,white,white,white,white,1,618.5,whiteBLUE,35.512,92254.5,654.012,1,28.419,231.22,434.02,202.835,405.635,608.436,biasInCon,white
2,pro,stp,1,DMCC8033964,pro_stp_run1_DMCC8033964,RED,InCon,bias,purple,2400,97649,56124,3,purple,purple,purple,purple,1,604.5,purpleRED,41.525,98253.5,646.025,1,28.419,231.22,434.02,202.835,405.635,608.436,biasInCon,purple
2,pro,stp,1,DMCC8033964,pro_stp_run1_DMCC8033964,WHITE,InCon,bias,purple,1200,102448,56124,4,purple,purple,purple,purple,1,576.5,purpleWHITE,46.324,103024.5,622.824,1,28.419,231.22,434.02,202.835,405.635,608.436,biasInCon,purple
2,pro,stp,1,DMCC8033964,pro_stp_run1_DMCC8033964,YELLOW,Con,PC50,yellow,2400,106048,56124,5,yellow,yellow,yellow,yellow,1,641.5,yellowYELLOW,49.924,106689.5,691.424,1,28.419,231.22,434.02,202.835,405.635,608.436,PC50Con,yellow
2,pro,stp,1,DMCC8033964,pro_stp_run1_DMCC8033964,BLUE,Con,bias,blue,2400,110848,56124,6,blue,blue,blue,blue,1,614.5,blueBLUE,54.724,111462.5,669.224,1,28.419,231.22,434.02,202.835,405.635,608.436,biasCon,blue
2,pro,stp,1,DMCC8033964,pro_stp_run1_DMCC8033964,RED,InCon,bias,blue,3600,115647,56124,7,blue,blue,blue,blue,1,707.5,blueRED,59.523,116354.5,767.023,1,28.419,231.22,434.02,202.835,405.635,608.436,biasInCon,blue
2,pro,stp,1,DMCC8033964,pro_stp_run1_DMCC8033964,PURPLE,InCon,bias,red,1200,121647,56124,8,red,red,red,red,1,771.5,redPURPLE,65.523,122418.5,837.023,1,28.419,231.22,434.02,202.835,405.635,608.436,biasInCon,red
2,pro,stp,1,DMCC8033964,pro_stp_run1_DMCC8033964,RED,InCon,bias,blue,3600,125247,56124,9,blue,blue,blue,blue,1,748.5,blueRED,69.123,125995.5,817.623,1,28.419,231.22,434.02,202.835,405.635,608.436,biasInCon,blue
2,pro,stp,1,DMCC8033964,pro_stp_run1_DMCC8033964,RED,InCon,bias,purple,1200,131246,56124,10,purple,purple,purple,purple,1,633,purpleRED,75.122,131879,708.122,1,28.419,231.22,434.02,202.835,405.635,608.436,biasInCon,purple
2,pro,stp,1,DMCC8033964,pro_stp_run1_DMCC8033964,BLACK,Con,PC50,black,1200,134846,56124,11,black,black,black,black,1,687,blackBLACK,78.722,135533,765.722,1,28.419,231.22,434.02,202.835,405.635,608.436,PC50Con,black
2,pro,stp,1,DMCC8033964,pro_stp_run1_DMCC8033964,BLACK,InCon,PC50,green,3600,138446,56124,12,green,green,green,green,1,718,greenBLACK,82.322,139164,800.322,1,28.419,231.22,434.02,202.835,405.635,608.436,PC50InCon,green
2,pro,stp,1,DMCC8033964,pro_stp_run1_DMCC8033964,YELLOW,InCon,PC50,pink,3600,144446,56124,13,pink,pink,pink,pink,1,656.5,pinkYELLOW,88.322,145102.5,744.822,1,28.419,231.22,434.02,202.835,405.635,608.436,PC50InCon,pink
2,pro,stp,1,DMCC8033964,pro_stp_run1_DMCC8033964,YELLOW,InCon,PC50,black,3600,150445,56124,14,black,black,black,black,1,643.5,blackYELLOW,94.321,151088.5,737.821,1,28.419,231.22,434.02,202.835,405.635,608.436,PC50InCon,black
2,pro,stp,1,DMCC8033964,pro_stp_run1_DMCC8033964,WHITE,InCon,bias,red,1200,156445,56124,15,red,red,red,red,1,743.5,redWHITE,100.321,157188.5,843.821,1,28.419,231.22,434.02,202.835,405.635,608.436,biasInCon,red
2,pro,stp,1,DMCC8033964,pro_stp_run1_DMCC8033964,GREEN,InCon,PC50,pink,3600,160045,56124,16,pink,pink,pink,pink,1,768,pinkGREEN,103.921,160813,871.921,1,28.419,231.22,434.02,202.835,405.635,608.436,PC50InCon,pink
2,pro,stp,1,DMCC8033964,pro_stp_run1_DMCC8033964,BLUE,InCon,bias,red,2400,166044,56124,17,red,red,red,red,1,699,redBLUE,109.92,166743,808.92,1,28.419,231.22,434.02,202.835,405.635,608.436,biasInCon,red
2,pro,stp,1,DMCC8033964,pro_stp_run1_DMCC8033964,WHITE,Con,bias,white,1200,170844,56124,18,white,white,white,white,1,646.5,whiteWHITE,114.72,171490.5,761.22,1,28.419,231.22,434.02,202.835,405.635,608.436,biasCon,white
2,pro,stp,1,DMCC8033964,pro_stp_run1_DMCC8033964,PINK,Con,PC50,pink,2400,174444,56124,19,pink,pink,pink,pink,1,593,pinkPINK,118.32,175037,711.32,1,28.419,231.22,434.02,202.835,405.635,608.436,PC50Con,pink
2,pro,stp,1,DMCC8033964,pro_stp_run1_DMCC8033964,WHITE,InCon,bias,red,1200,179243,56124,20,"",red,red,red,1,672,redWHITE,123.119,179915,795.119,1,28.419,231.22,434.02,202.835,405.635,608.436,biasInCon,red
2,pro,stp,1,DMCC8033964,pro_stp_run1_DMCC8033964,GREEN,Con,PC50,green,2400,182843,56124,21,green,green,green,green,1,688,greenGREEN,126.719,183531,814.719,1,28.419,231.22,434.02,202.835,405.635,608.436,PC50Con,green
2,pro,stp,1,DMCC8033964,pro_stp_run1_DMCC8033964,BLUE,InCon,bias,purple,1200,187643,56124,22,purple,purple,purple,purple,1,709.5,purpleBLUE,131.519,188352.5,841.019,1,28.419,231.22,434.02,202.835,405.635,608.436,biasInCon,purple
2,pro,stp,1,DMCC8033964,pro_stp_run1_DMCC8033964,PURPLE,InCon,bias,white,2400,191243,56124,23,white,white,white,white,1,641,whitePURPLE,135.119,191884,776.119,1,28.419,231.22,434.02,202.835,405.635,608.436,biasInCon,white
2,pro,stp,1,DMCC8033964,pro_stp_run1_DMCC8033964,GREEN,InCon,PC50,yellow,3600,196042,56124,24,yellow,yellow,yellow,yellow,1,642.5,yellowGREEN,139.918,196684.5,782.418,1,28.419,231.22,434.02,202.835,405.635,608.436,PC50InCon,yellow
2,pro,stp,1,DMCC8033964,pro_stp_run1_DMCC8033964,BLUE,Con,bias,blue,3600,202042,56124,25,blue,blue,blue,blue,1,657.5,blueBLUE,145.918,202699.5,803.418,1,28.419,231.22,434.02,202.835,405.635,608.436,biasCon,blue
2,pro,stp,1,DMCC8033964,pro_stp_run1_DMCC8033964,PURPLE,InCon,bias,blue,1200,208042,56124,26,blue,blue,blue,blue,1,657,bluePURPLE,151.918,208699,808.918,1,28.419,231.22,434.02,202.835,405.635,608.436,biasInCon,blue
2,pro,stp,1,DMCC8033964,pro_stp_run1_DMCC8033964,PURPLE,InCon,bias,blue,1200,211641,56124,27,blue,blue,blue,blue,1,647.5,bluePURPLE,155.517,212288.5,803.017,1,28.419,231.22,434.02,202.835,405.635,608.436,biasInCon,blue
2,pro,stp,1,DMCC8033964,pro_stp_run1_DMCC8033964,GREEN,Con,PC50,green,2400,215241,56124,28,green,green,green,green,1,681,greenGREEN,159.117,215922,840.117,1,28.419,231.22,434.02,202.835,405.635,608.436,PC50Con,green
2,pro,stp,1,DMCC8033964,pro_stp_run1_DMCC8033964,RED,InCon,bias,white,1200,220041,56124,29,white,white,white,white,1,583.5,whiteRED,163.917,220624.5,747.417,1,28.419,231.22,434.02,202.835,405.635,608.436,biasInCon,white
2,pro,stp,1,DMCC8033964,pro_stp_run1_DMCC8033964,YELLOW,Con,PC50,yellow,3600,223641,56124,30,yellow,yellow,yellow,yellow,1,654,yellowYELLOW,167.517,224295,821.517,1,28.419,231.22,434.02,202.835,405.635,608.436,PC50Con,yellow
2,pro,stp,1,DMCC8033964,pro_stp_run1_DMCC8033964,PURPLE,Con,bias,purple,2400,229640,56124,31,purple,purple,purple,purple,1,505.5,purplePURPLE,173.516,230145.5,679.016,1,28.419,231.22,434.02,202.835,405.635,608.436,biasCon,purple
2,pro,stp,1,DMCC8033964,pro_stp_run1_DMCC8033964,WHITE,InCon,bias,blue,1200,234440,56124,32,blue,blue,blue,blue,1,638.5,blueWHITE,178.316,235078.5,816.816,1,28.419,231.22,434.02,202.835,405.635,608.436,biasInCon,blue
2,pro,stp,1,DMCC8033964,pro_stp_run1_DMCC8033964,PURPLE,Con,bias,purple,2400,238040,56124,33,purple,purple,purple,purple,1,584.5,purplePURPLE,181.916,238624.5,766.416,1,28.419,231.22,434.02,202.835,405.635,608.436,biasCon,purple
2,pro,stp,1,DMCC8033964,pro_stp_run1_DMCC8033964,WHITE,InCon,bias,purple,3600,242840,56124,34,purple,purple,purple,purple,1,600,purpleWHITE,186.716,243440,786.716,1,28.419,231.22,434.02,202.835,405.635,608.436,biasInCon,purple
2,pro,stp,1,DMCC8033964,pro_stp_run1_DMCC8033964,RED,Con,bias,red,2400,248839,56124,35,red,red,red,red,1,583,redRED,192.715,249422,775.715,1,28.419,231.22,434.02,202.835,405.635,608.436,biasCon,red
2,pro,stp,1,DMCC8033964,pro_stp_run1_DMCC8033964,BLUE,InCon,bias,white,3600,253639,56124,36,white,white,white,white,1,600,whiteBLUE,197.515,254239,797.515,1,28.419,231.22,434.02,202.835,405.635,608.436,biasInCon,white
2,pro,stp,1,DMCC8033964,pro_stp_run1_DMCC8033964,YELLOW,InCon,PC50,black,2400,289637,56124,37,black,black - faint,black,black,1,640.5,blackYELLOW,233.513,290277.5,874.013,1,28.419,231.22,434.02,202.835,405.635,608.436,PC50InCon,black
2,pro,stp,1,DMCC8033964,pro_stp_run1_DMCC8033964,GREEN,Con,PC50,green,1200,294436,56124,38,green,green,green,green,1,652,greenGREEN,238.312,295088,890.312,1,28.419,231.22,434.02,202.835,405.635,608.436,PC50Con,green
2,pro,stp,1,DMCC8033964,pro_stp_run1_DMCC8033964,WHITE,InCon,bias,red,3600,298036,56124,39,red,red,red,red,1,688.5,redWHITE,241.912,298724.5,930.412,1,28.419,231.22,434.02,202.835,405.635,608.436,biasInCon,red
2,pro,stp,1,DMCC8033964,pro_stp_run1_DMCC8033964,RED,Con,bias,red,2400,304036,56124,40,red,red,red,red,1,609,redRED,247.912,304645,856.912,1,28.419,231.22,434.02,202.835,405.635,608.436,biasCon,red
2,pro,stp,1,DMCC8033964,pro_stp_run1_DMCC8033964,PINK,Con,PC50,pink,2400,308836,56124,41,pink,pink,pink,pink,1,511.5,pinkPINK,252.712,309347.5,764.212,1,28.419,231.22,434.02,202.835,405.635,608.436,PC50Con,pink
2,pro,stp,1,DMCC8033964,pro_stp_run1_DMCC8033964,YELLOW,Con,PC50,yellow,3600,313649,56124,42,yellow,yellow,yellow,yellow,1,,yellowYELLOW,257.525,,,1,28.419,231.22,434.02,202.835,405.635,608.436,PC50Con,yellow
2,pro,stp,1,DMCC8033964,pro_stp_run1_DMCC8033964,PURPLE,InCon,bias,blue,1200,319648,56124,43,blue,blue,blue,blue,1,897,bluePURPLE,263.524,320545,1160.524,1,28.419,231.22,434.02,202.835,405.635,608.436,biasInCon,blue
2,pro,stp,1,DMCC8033964,pro_stp_run1_DMCC8033964,PURPLE,InCon,bias,red,3600,323248,56124,44,red,red,red,red,1,609.5,redPURPLE,267.124,323857.5,876.624,1,28.419,231.22,434.02,202.835,405.635,608.436,biasInCon,red
2,pro,stp,1,DMCC8033964,pro_stp_run1_DMCC8033964,PURPLE,Con,bias,purple,3600,329248,56124,45,purple,purple,purple,purple,1,577,purplePURPLE,273.124,329825,850.124,1,28.419,231.22,434.02,202.835,405.635,608.436,biasCon,purple
2,pro,stp,1,DMCC8033964,pro_stp_run1_DMCC8033964,WHITE,InCon,bias,purple,1200,335247,56124,46,purple,purple,purple,purple,1,643.5,purpleWHITE,279.123,335890.5,922.623,1,28.419,231.22,434.02,202.835,405.635,608.436,biasInCon,purple
2,pro,stp,1,DMCC8033964,pro_stp_run1_DMCC8033964,WHITE,InCon,bias,red,2400,338847,56124,47,red,red,red,red,1,696,redWHITE,282.723,339543,978.723,1,28.419,231.22,434.02,202.835,405.635,608.436,biasInCon,red
2,pro,stp,1,DMCC8033964,pro_stp_run1_DMCC8033964,RED,InCon,bias,blue,1200,343647,56124,48,blue,blue,blue,blue,1,685.5,blueRED,287.523,344332.5,973.023,1,28.419,231.22,434.02,202.835,405.635,608.436,biasInCon,blue
2,pro,stp,1,DMCC8033964,pro_stp_run1_DMCC8033964,BLUE,Con,bias,blue,1200,347246,56124,49,blue,blue,blue,blue,1,654,blueBLUE,291.122,347900,945.122,1,28.419,231.22,434.02,202.835,405.635,608.436,biasCon,blue
2,pro,stp,1,DMCC8033964,pro_stp_run1_DMCC8033964,BLACK,InCon,PC50,green,2400,350846,56124,50,green,green,green,green,1,680,greenBLACK,294.722,351526,974.722,1,28.419,231.22,434.02,202.835,405.635,608.436,PC50InCon,green
2,pro,stp,1,DMCC8033964,pro_stp_run1_DMCC8033964,BLUE,InCon,bias,white,2400,355646,56124,51,white,white,white,white,1,616,whiteBLUE,299.522,356262,915.522,1,28.419,231.22,434.02,202.835,405.635,608.436,biasInCon,white
2,pro,stp,1,DMCC8033964,pro_stp_run1_DMCC8033964,BLUE,Con,bias,blue,3600,360446,56124,52,blue,blue,blue,blue,1,627.5,blueBLUE,304.322,361073.5,931.822,1,28.419,231.22,434.02,202.835,405.635,608.436,biasCon,blue
2,pro,stp,1,DMCC8033964,pro_stp_run1_DMCC8033964,RED,InCon,bias,purple,1200,366445,56124,53,purple,purple,purple,purple,1,651,purpleRED,310.321,367096,961.321,1,28.419,231.22,434.02,202.835,405.635,608.436,biasInCon,purple
2,pro,stp,1,DMCC8033964,pro_stp_run1_DMCC8033964,RED,InCon,bias,purple,1200,370045,56124,54,purple,purple,purple,purple,1,630.5,purpleRED,313.921,370675.5,944.421,1,28.419,231.22,434.02,202.835,405.635,608.436,biasInCon,purple
2,pro,stp,1,DMCC8033964,pro_stp_run1_DMCC8033964,GREEN,InCon,PC50,yellow,3600,373645,56124,55,yellow,yellow,yellow,yellow,1,736,yellowGREEN,317.521,374381,1053.521,1,28.419,231.22,434.02,202.835,405.635,608.436,PC50InCon,yellow
2,pro,stp,1,DMCC8033964,pro_stp_run1_DMCC8033964,WHITE,Con,bias,white,3600,379644,56124,56,white,white,white,white,1,580,whiteWHITE,323.52,380224,903.52,1,28.419,231.22,434.02,202.835,405.635,608.436,biasCon,white
2,pro,stp,1,DMCC8033964,pro_stp_run1_DMCC8033964,BLACK,Con,PC50,black,2400,385644,56124,57,black,black,black,black,1,671.5,blackBLACK,329.52,386315.5,1001.02,1,28.419,231.22,434.02,202.835,405.635,608.436,PC50Con,black
2,pro,stp,1,DMCC8033964,pro_stp_run1_DMCC8033964,RED,InCon,bias,blue,2400,390444,56124,58,blue,blue,blue,blue,1,610.5,blueRED,334.32,391054.5,944.82,1,28.419,231.22,434.02,202.835,405.635,608.436,biasInCon,blue
2,pro,stp,1,DMCC8033964,pro_stp_run1_DMCC8033964,GREEN,InCon,PC50,pink,1200,395244,56124,59,pink,pink,pink,pink,1,651,pinkGREEN,339.12,395895,990.12,1,28.419,231.22,434.02,202.835,405.635,608.436,PC50InCon,pink
2,pro,stp,1,DMCC8033964,pro_stp_run1_DMCC8033964,PURPLE,Con,bias,purple,3600,398843,56124,60,purple- muffled,purple,purple,purple,1,581.5,purplePURPLE,342.719,399424.5,924.219,1,28.419,231.22,434.02,202.835,405.635,608.436,biasCon,purple
2,pro,stp,1,DMCC8033964,pro_stp_run1_DMCC8033964,BLUE,InCon,bias,red,3600,404843,56124,61,red,red,red,red,1,624,redBLUE,348.719,405467,972.719,1,28.419,231.22,434.02,202.835,405.635,608.436,biasInCon,red
2,pro,stp,1,DMCC8033964,pro_stp_run1_DMCC8033964,BLUE,InCon,bias,white,1200,410843,56124,62,white,white,white,white,1,629,whiteBLUE,354.719,411472,983.719,1,28.419,231.22,434.02,202.835,405.635,608.436,biasInCon,white
2,pro,stp,1,DMCC8033964,pro_stp_run1_DMCC8033964,YELLOW,Con,PC50,yellow,3600,414442,56124,63,yellow,yellow,yellow,yellow,1,873,yellowYELLOW,358.318,415315,1231.318,1,28.419,231.22,434.02,202.835,405.635,608.436,PC50Con,yellow
2,pro,stp,1,DMCC8033964,pro_stp_run1_DMCC8033964,YELLOW,InCon,PC50,pink,1200,420442,56124,64,pink,pink,pink,pink,1,575.5,pinkYELLOW,364.318,421017.5,939.818,1,28.419,231.22,434.02,202.835,405.635,608.436,PC50InCon,pink
2,pro,stp,1,DMCC8033964,pro_stp_run1_DMCC8033964,WHITE,InCon,bias,blue,2400,424042,56124,65,blue,blue,blue,blue,1,642.5,blueWHITE,367.918,424684.5,1010.418,1,28.419,231.22,434.02,202.835,405.635,608.436,biasInCon,blue
2,pro,stp,1,DMCC8033964,pro_stp_run1_DMCC8033964,GREEN,Con,PC50,green,2400,428841,56124,66,green,green,green,green,1,637.5,greenGREEN,372.717,429478.5,1010.217,1,28.419,231.22,434.02,202.835,405.635,608.436,PC50Con,green
2,pro,stp,1,DMCC8033964,pro_stp_run1_DMCC8033964,RED,InCon,bias,white,2400,433641,56124,67,white,white,white,white,1,640,whiteRED,377.517,434281,1017.517,1,28.419,231.22,434.02,202.835,405.635,608.436,biasInCon,white
2,pro,stp,1,DMCC8033964,pro_stp_run1_DMCC8033964,BLUE,InCon,bias,purple,2400,438441,56124,68,purple,purple,purple,purple,1,628.5,purpleBLUE,382.317,439069.5,1010.817,1,28.419,231.22,434.02,202.835,405.635,608.436,biasInCon,purple
2,pro,stp,1,DMCC8033964,pro_stp_run1_DMCC8033964,PURPLE,InCon,bias,white,1200,443241,56124,69,white,white,white,white,1,620.5,whitePURPLE,387.117,443861.5,1007.617,1,28.419,231.22,434.02,202.835,405.635,608.436,biasInCon,white
2,pro,stp,1,DMCC8033964,pro_stp_run1_DMCC8033964,WHITE,InCon,bias,purple,3600,446840,56124,70,purple,purple,purple,purple,1,702,purpleWHITE,390.716,447542,1092.716,1,28.419,231.22,434.02,202.835,405.635,608.436,biasInCon,purple
2,pro,stp,1,DMCC8033964,pro_stp_run1_DMCC8033964,PINK,InCon,PC50,black,1200,452840,56124,71,black,black,black,black,1,747,blackPINK,396.716,453587,1143.716,1,28.419,231.22,434.02,202.835,405.635,608.436,PC50InCon,black
2,pro,stp,1,DMCC8033964,pro_stp_run1_DMCC8033964,PURPLE,InCon,bias,blue,3600,456440,56124,72,blue,blue,blue,blue,1,575.5,bluePURPLE,400.316,457015.5,975.816,1,28.419,231.22,434.02,202.835,405.635,608.436,biasInCon,blue
2,pro,stp,1,DMCC8033964,pro_stp_run1_DMCC8033964,GREEN,InCon,PC50,pink,3600,492438,56124,73,pink,pink,pink,pink,1,606,pinkGREEN,436.314,493044,1042.314,1,28.419,231.22,434.02,202.835,405.635,608.436,PC50InCon,pink
2,pro,stp,1,DMCC8033964,pro_stp_run1_DMCC8033964,YELLOW,Con,PC50,yellow,3600,498437,56124,74,yellow,yellow,yellow,yellow,1,562.5,yellowYELLOW,442.313,498999.5,1004.813,1,28.419,231.22,434.02,202.835,405.635,608.436,PC50Con,yellow
2,pro,stp,1,DMCC8033964,pro_stp_run1_DMCC8033964,YELLOW,Con,PC50,yellow,1200,504437,56124,75,yellow,yellow,yellow,yellow,1,558.5,yellowYELLOW,448.313,504995.5,1006.813,1,28.419,231.22,434.02,202.835,405.635,608.436,PC50Con,yellow
2,pro,stp,1,DMCC8033964,pro_stp_run1_DMCC8033964,PURPLE,InCon,bias,blue,2400,508037,56124,76,blue,blue,blue,blue,1,606,bluePURPLE,451.913,508643,1057.913,1,28.419,231.22,434.02,202.835,405.635,608.436,biasInCon,blue
2,pro,stp,1,DMCC8033964,pro_stp_run1_DMCC8033964,PURPLE,Con,bias,purple,1200,512836,56124,77,purple,purple,purple,purple,1,530.5,purplePURPLE,456.712,513366.5,987.212,1,28.419,231.22,434.02,202.835,405.635,608.436,biasCon,purple
2,pro,stp,1,DMCC8033964,pro_stp_run1_DMCC8033964,RED,InCon,bias,white,2400,516436,56124,78,white,white,white,white,1,637,whiteRED,460.312,517073,1097.312,1,28.419,231.22,434.02,202.835,405.635,608.436,biasInCon,white
2,pro,stp,1,DMCC8033964,pro_stp_run1_DMCC8033964,BLUE,InCon,bias,red,3600,521236,56124,79,red,red,red,red,1,776,redBLUE,465.112,522012,1241.112,1,28.419,231.22,434.02,202.835,405.635,608.436,biasInCon,red
2,pro,stp,1,DMCC8033964,pro_stp_run1_DMCC8033964,WHITE,InCon,bias,red,2400,527249,56124,80,red,red,red,red,1,610.5,redWHITE,471.125,527859.5,1081.625,1,28.419,231.22,434.02,202.835,405.635,608.436,biasInCon,red
2,pro,stp,1,DMCC8033964,pro_stp_run1_DMCC8033964,WHITE,Con,bias,white,1200,532048,56124,81,white,white,white,white,1,617.5,whiteWHITE,475.924,532665.5,1093.424,1,28.419,231.22,434.02,202.835,405.635,608.436,biasCon,white
2,pro,stp,1,DMCC8033964,pro_stp_run1_DMCC8033964,BLUE,InCon,bias,white,3600,535648,56124,82,white,white,white,white,1,606,whiteBLUE,479.524,536254,1085.524,1,28.419,231.22,434.02,202.835,405.635,608.436,biasInCon,white
2,pro,stp,1,DMCC8033964,pro_stp_run1_DMCC8033964,PURPLE,InCon,bias,blue,2400,541648,56124,83,blue,blue,blue,blue,1,641.5,bluePURPLE,485.524,542289.5,1127.024,1,28.419,231.22,434.02,202.835,405.635,608.436,biasInCon,blue
2,pro,stp,1,DMCC8033964,pro_stp_run1_DMCC8033964,BLUE,InCon,bias,white,1200,546448,56124,84,white,white,white,white,1,594.5,whiteBLUE,490.324,547042.5,1084.824,1,28.419,231.22,434.02,202.835,405.635,608.436,biasInCon,white
2,pro,stp,1,DMCC8033964,pro_stp_run1_DMCC8033964,PURPLE,Con,bias,purple,1200,550047,56124,85,purple,purple,purple,purple,1,566,purplePURPLE,493.923,550613,1059.923,1,28.419,231.22,434.02,202.835,405.635,608.436,biasCon,purple
2,pro,stp,1,DMCC8033964,pro_stp_run1_DMCC8033964,YELLOW,InCon,PC50,black,1200,553647,56124,86,black,black,black,black,1,668,blackYELLOW,497.523,554315,1165.523,1,28.419,231.22,434.02,202.835,405.635,608.436,PC50InCon,black
2,pro,stp,1,DMCC8033964,pro_stp_run1_DMCC8033964,RED,Con,bias,red,2400,557247,56124,87,red,red,red,red,1,627,redRED,501.123,557874,1128.123,1,28.419,231.22,434.02,202.835,405.635,608.436,biasCon,red
2,pro,stp,1,DMCC8033964,pro_stp_run1_DMCC8033964,RED,InCon,bias,blue,3600,562047,56124,88,blue,blue,blue,blue,1,685,blueRED,505.923,562732,1190.923,1,28.419,231.22,434.02,202.835,405.635,608.436,biasInCon,blue
2,pro,stp,1,DMCC8033964,pro_stp_run1_DMCC8033964,WHITE,InCon,bias,blue,1200,568046,56124,89,blue,blue,blue,blue,1,,blueWHITE,511.922,,,1,28.419,231.22,434.02,202.835,405.635,608.436,biasInCon,blue
2,pro,stp,1,DMCC8033964,pro_stp_run1_DMCC8033964,BLUE,Con,bias,blue,1200,571646,56124,90,blue,blue,blue,blue,1,670.5,blueBLUE,515.522,572316.5,1186.022,1,28.419,231.22,434.02,202.835,405.635,608.436,biasCon,blue
2,pro,stp,1,DMCC8033964,pro_stp_run1_DMCC8033964,RED,InCon,bias,purple,3600,575246,56124,91,purple,purple,purple,purple,1,569.5,purpleRED,519.122,575815.5,1088.622,1,28.419,231.22,434.02,202.835,405.635,608.436,biasInCon,purple
2,pro,stp,1,DMCC8033964,pro_stp_run1_DMCC8033964,YELLOW,InCon,PC50,pink,3600,581245,56124,92,pink,pink,pink,pink,1,680.5,pinkYELLOW,525.121,581925.5,1205.621,1,28.419,231.22,434.02,202.835,405.635,608.436,PC50InCon,pink
2,pro,stp,1,DMCC8033964,pro_stp_run1_DMCC8033964,PURPLE,InCon,bias,red,3600,587245,56124,93,red,red,red,red,1,760,redPURPLE,531.121,588005,1291.121,1,28.419,231.22,434.02,202.835,405.635,608.436,biasInCon,red
2,pro,stp,1,DMCC8033964,pro_stp_run1_DMCC8033964,PURPLE,InCon,bias,white,2400,593245,56124,94,white,white,white,white,1,592,whitePURPLE,537.121,593837,1129.121,1,28.419,231.22,434.02,202.835,405.635,608.436,biasInCon,white
2,pro,stp,1,DMCC8033964,pro_stp_run1_DMCC8033964,BLACK,InCon,PC50,green,2400,598044,56124,95,green,green,green,green,1,669,greenBLACK,541.92,598713,1210.92,1,28.419,231.22,434.02,202.835,405.635,608.436,PC50InCon,green
2,pro,stp,1,DMCC8033964,pro_stp_run1_DMCC8033964,RED,InCon,bias,purple,2400,602844,56124,96,purple,purple,purple,purple,1,671.5,purpleRED,546.72,603515.5,1218.22,1,28.419,231.22,434.02,202.835,405.635,608.436,biasInCon,purple
2,pro,stp,1,DMCC8033964,pro_stp_run1_DMCC8033964,WHITE,InCon,bias,purple,2400,607644,56124,97,purple,purple,purple,purple,1,581.5,purpleWHITE,551.52,608225.5,1133.02,1,28.419,231.22,434.02,202.835,405.635,608.436,biasInCon,purple
2,pro,stp,1,DMCC8033964,pro_stp_run1_DMCC8033964,BLACK,Con,PC50,black,1200,612443,56124,98,black,black,black,black,1,594,blackBLACK,556.319,613037,1150.319,1,28.419,231.22,434.02,202.835,405.635,608.436,PC50Con,black
2,pro,stp,1,DMCC8033964,pro_stp_run1_DMCC8033964,GREEN,Con,PC50,green,2400,616043,56124,99,green,green,green,green,1,677,greenGREEN,559.919,616720,1236.919,1,28.419,231.22,434.02,202.835,405.635,608.436,PC50Con,green
2,pro,stp,1,DMCC8033964,pro_stp_run1_DMCC8033964,BLUE,Con,bias,blue,2400,620843,56124,100,blue,blue,blue,blue,1,647,blueBLUE,564.719,621490,1211.719,1,28.419,231.22,434.02,202.835,405.635,608.436,biasCon,blue
2,pro,stp,1,DMCC8033964,pro_stp_run1_DMCC8033964,PINK,InCon,PC50,black,2400,625643,56124,101,black,black,black,black,1,642.5,blackPINK,569.519,626285.5,1212.019,1,28.419,231.22,434.02,202.835,405.635,608.436,PC50InCon,black
2,pro,stp,1,DMCC8033964,pro_stp_run1_DMCC8033964,GREEN,InCon,PC50,yellow,3600,630442,56124,102,yellow,yellow,yellow,yellow,1,608.5,yellowGREEN,574.318,631050.5,1182.818,1,28.419,231.22,434.02,202.835,405.635,608.436,PC50InCon,yellow
2,pro,stp,1,DMCC8033964,pro_stp_run1_DMCC8033964,PINK,Con,PC50,pink,1200,636442,56124,103,pink,pink,pink,pink,1,516,pinkPINK,580.318,636958,1096.318,1,28.419,231.22,434.02,202.835,405.635,608.436,PC50Con,pink
2,pro,stp,1,DMCC8033964,pro_stp_run1_DMCC8033964,WHITE,InCon,bias,purple,1200,640042,56124,104,purple,purple,purple,purple,1,602.5,purpleWHITE,583.918,640644.5,1186.418,1,28.419,231.22,434.02,202.835,405.635,608.436,biasInCon,purple
2,pro,stp,1,DMCC8033964,pro_stp_run1_DMCC8033964,BLUE,InCon,bias,purple,3600,643642,56124,105,purple,purple,purple,purple,1,630,purpleBLUE,587.518,644272,1217.518,1,28.419,231.22,434.02,202.835,405.635,608.436,biasInCon,purple
2,pro,stp,1,DMCC8033964,pro_stp_run1_DMCC8033964,RED,InCon,bias,blue,1200,649641,56124,106,blue,blue,blue,blue,1,657.5,blueRED,593.517,650298.5,1251.017,1,28.419,231.22,434.02,202.835,405.635,608.436,biasInCon,blue
2,pro,stp,1,DMCC8033964,pro_stp_run1_DMCC8033964,WHITE,InCon,bias,red,3600,653241,56124,107,red,red,red,red,1,660.5,redWHITE,597.117,653901.5,1257.617,1,28.419,231.22,434.02,202.835,405.635,608.436,biasInCon,red
2,pro,stp,1,DMCC8033964,pro_stp_run1_DMCC8033964,GREEN,Con,PC50,green,3600,659241,56124,108,green,green,green,green,1,660.5,greenGREEN,603.117,659901.5,1263.617,1,28.419,231.22,434.02,202.835,405.635,608.436,PC50Con,green
2,pro,stp,2,DMCC8033964,pro_stp_run2_DMCC8033964,BLUE,InCon,bias,red,1200,62820,32108,1,red,red,red,red,1,689.5,redBLUE,30.712,63509.5,720.212,1,28.405,231.206,434.007,202.821,405.622,608.423,biasInCon,red
2,pro,stp,2,DMCC8033964,pro_stp_run2_DMCC8033964,RED,Con,bias,red,3600,66420,32108,2,red,red,red,red,1,670.5,redRED,34.312,67090.5,704.812,1,28.405,231.206,434.007,202.821,405.622,608.423,biasCon,red
2,pro,stp,2,DMCC8033964,pro_stp_run2_DMCC8033964,PURPLE,InCon,bias,blue,2400,72419,32108,3,blue,blue,blue,blue,1,866,bluePURPLE,40.311,73285,906.311,1,28.405,231.206,434.007,202.821,405.622,608.423,biasInCon,blue
2,pro,stp,2,DMCC8033964,pro_stp_run2_DMCC8033964,PINK,Con,PC50,pink,1200,77219,32108,4,pink,pink,pink,pink,1,573.5,pinkPINK,45.111,77792.5,618.611,1,28.405,231.206,434.007,202.821,405.622,608.423,PC50Con,pink
2,pro,stp,2,DMCC8033964,pro_stp_run2_DMCC8033964,GREEN,Con,PC50,green,1200,80819,32108,5,green,green,green,green,1,707,greenGREEN,48.711,81526,755.711,1,28.405,231.206,434.007,202.821,405.622,608.423,PC50Con,green
2,pro,stp,2,DMCC8033964,pro_stp_run2_DMCC8033964,PINK,Con,PC50,pink,2400,84418,32108,6,pink,pink,pink,pink,1,566.5,pinkPINK,52.31,84984.5,618.81,1,28.405,231.206,434.007,202.821,405.622,608.423,PC50Con,pink
2,pro,stp,2,DMCC8033964,pro_stp_run2_DMCC8033964,PURPLE,InCon,bias,white,2400,89218,32108,7,white,white,white,white,1,585,whitePURPLE,57.11,89803,642.11,1,28.405,231.206,434.007,202.821,405.622,608.423,biasInCon,white
2,pro,stp,2,DMCC8033964,pro_stp_run2_DMCC8033964,BLUE,InCon,bias,red,3600,94018,32108,8,red,red,red,red,1,704,redBLUE,61.91,94722,765.91,1,28.405,231.206,434.007,202.821,405.622,608.423,biasInCon,red
2,pro,stp,2,DMCC8033964,pro_stp_run2_DMCC8033964,WHITE,Con,bias,white,2400,100017,32108,9,white,white,white,white,1,594,whiteWHITE,67.909,100611,661.909,1,28.405,231.206,434.007,202.821,405.622,608.423,biasCon,white
2,pro,stp,2,DMCC8033964,pro_stp_run2_DMCC8033964,YELLOW,InCon,PC50,green,1200,104817,32108,10,green,green,green,green,1,660.5,greenYELLOW,72.709,105477.5,733.209,1,28.405,231.206,434.007,202.821,405.622,608.423,PC50InCon,green
2,pro,stp,2,DMCC8033964,pro_stp_run2_DMCC8033964,BLUE,InCon,bias,purple,3600,108417,32108,11,purple,purple,purple,purple,1,803,purpleBLUE,76.309,109220,879.309,1,28.405,231.206,434.007,202.821,405.622,608.423,biasInCon,purple
2,pro,stp,2,DMCC8033964,pro_stp_run2_DMCC8033964,RED,InCon,bias,white,3600,114417,32108,12,white,white,white,white,1,629,whiteRED,82.309,115046,711.309,1,28.405,231.206,434.007,202.821,405.622,608.423,biasInCon,white
2,pro,stp,2,DMCC8033964,pro_stp_run2_DMCC8033964,WHITE,InCon,bias,blue,2400,120416,32108,13,blue,blue,blue,blue,1,783.5,blueWHITE,88.308,121199.5,871.808,1,28.405,231.206,434.007,202.821,405.622,608.423,biasInCon,blue
2,pro,stp,2,DMCC8033964,pro_stp_run2_DMCC8033964,PURPLE,InCon,bias,white,1200,125216,32108,14,white,white,white,white,1,581,whitePURPLE,93.108,125797,674.108,1,28.405,231.206,434.007,202.821,405.622,608.423,biasInCon,white
2,pro,stp,2,DMCC8033964,pro_stp_run2_DMCC8033964,PINK,InCon,PC50,green,3600,128816,32108,15,green,green,green,green,1,665.5,greenPINK,96.708,129481.5,762.208,1,28.405,231.206,434.007,202.821,405.622,608.423,PC50InCon,green
2,pro,stp,2,DMCC8033964,pro_stp_run2_DMCC8033964,GREEN,InCon,PC50,black,2400,134815,32108,16,black,black,black,black,1,627,blackGREEN,102.707,135442,729.707,1,28.405,231.206,434.007,202.821,405.622,608.423,PC50InCon,black
2,pro,stp,2,DMCC8033964,pro_stp_run2_DMCC8033964,WHITE,Con,bias,white,2400,139615,32108,17,white,white,white,white,1,582,whiteWHITE,107.507,140197,689.507,1,28.405,231.206,434.007,202.821,405.622,608.423,biasCon,white
2,pro,stp,2,DMCC8033964,pro_stp_run2_DMCC8033964,YELLOW,Con,PC50,yellow,2400,144415,32108,18,yellow,yellow,yellow,yellow,1,661,yellowYELLOW,112.307,145076,773.307,1,28.405,231.206,434.007,202.821,405.622,608.423,PC50Con,yellow
2,pro,stp,2,DMCC8033964,pro_stp_run2_DMCC8033964,PURPLE,InCon,bias,red,3600,149214,32108,19,red,red,red,red,1,733.5,redPURPLE,117.106,149947.5,850.606,1,28.405,231.206,434.007,202.821,405.622,608.423,biasInCon,red
2,pro,stp,2,DMCC8033964,pro_stp_run2_DMCC8033964,RED,InCon,bias,purple,3600,155214,32108,20,purple,purple,purple,purple,1,639.5,purpleRED,123.106,155853.5,762.606,1,28.405,231.206,434.007,202.821,405.622,608.423,biasInCon,purple
2,pro,stp,2,DMCC8033964,pro_stp_run2_DMCC8033964,WHITE,InCon,bias,red,3600,161214,32108,21,red,red,red,red,1,838.5,redWHITE,129.106,162052.5,967.606,1,28.405,231.206,434.007,202.821,405.622,608.423,biasInCon,red
2,pro,stp,2,DMCC8033964,pro_stp_run2_DMCC8033964,WHITE,InCon,bias,purple,1200,167213,32108,22,purple,purple,purple,purple,1,592,purpleWHITE,135.105,167805,727.105,1,28.405,231.206,434.007,202.821,405.622,608.423,biasInCon,purple
2,pro,stp,2,DMCC8033964,pro_stp_run2_DMCC8033964,RED,Con,bias,red,1200,170813,32108,23,red,red,red,red,1,725,redRED,138.705,171538,863.705,1,28.405,231.206,434.007,202.821,405.622,608.423,biasCon,red
2,pro,stp,2,DMCC8033964,pro_stp_run2_DMCC8033964,BLUE,InCon,bias,white,1200,174413,32108,24,white,white,white,white,1,672.5,whiteBLUE,142.305,175085.5,814.805,1,28.405,231.206,434.007,202.821,405.622,608.423,biasInCon,white
2,pro,stp,2,DMCC8033964,pro_stp_run2_DMCC8033964,RED,InCon,bias,blue,2400,178013,32108,25,blue,blue,blue,blue,1,672,blueRED,145.905,178685,817.905,1,28.405,231.206,434.007,202.821,405.622,608.423,biasInCon,blue
2,pro,stp,2,DMCC8033964,pro_stp_run2_DMCC8033964,BLUE,Con,bias,blue,1200,182812,32108,26,blue,blue,blue,blue,1,620.5,blueBLUE,150.704,183432.5,771.204,1,28.405,231.206,434.007,202.821,405.622,608.423,biasCon,blue
2,pro,stp,2,DMCC8033964,pro_stp_run2_DMCC8033964,PURPLE,Con,bias,purple,1200,186412,32108,27,purple,purple,purple,purple,1,584.5,purplePURPLE,154.304,186996.5,738.804,1,28.405,231.206,434.007,202.821,405.622,608.423,biasCon,purple
2,pro,stp,2,DMCC8033964,pro_stp_run2_DMCC8033964,BLUE,InCon,bias,purple,1200,190012,32108,28,purple,purple,purple,purple,1,637.5,purpleBLUE,157.904,190649.5,795.404,1,28.405,231.206,434.007,202.821,405.622,608.423,biasInCon,purple
2,pro,stp,2,DMCC8033964,pro_stp_run2_DMCC8033964,BLACK,Con,PC50,black,2400,193612,32108,29,black,black,black,black,1,697,blackBLACK,161.504,194309,858.504,1,28.405,231.206,434.007,202.821,405.622,608.423,PC50Con,black
2,pro,stp,2,DMCC8033964,pro_stp_run2_DMCC8033964,WHITE,InCon,bias,blue,3600,198411,32108,30,blue,blue,blue,blue,1,648,blueWHITE,166.303,199059,814.303,1,28.405,231.206,434.007,202.821,405.622,608.423,biasInCon,blue
2,pro,stp,2,DMCC8033964,pro_stp_run2_DMCC8033964,PINK,InCon,PC50,yellow,1200,204411,32108,31,yellow,yellow,yellow,yellow,1,685.5,yellowPINK,172.303,205096.5,857.803,1,28.405,231.206,434.007,202.821,405.622,608.423,PC50InCon,yellow
2,pro,stp,2,DMCC8033964,pro_stp_run2_DMCC8033964,PURPLE,InCon,bias,red,3600,208011,32108,32,red,red,red,red,1,765,redPURPLE,175.903,208776,940.903,1,28.405,231.206,434.007,202.821,405.622,608.423,biasInCon,red
2,pro,stp,2,DMCC8033964,pro_stp_run2_DMCC8033964,RED,InCon,bias,white,3600,214010,32108,33,white,white,white,white,1,585,whiteRED,181.902,214595,766.902,1,28.405,231.206,434.007,202.821,405.622,608.423,biasInCon,white
2,pro,stp,2,DMCC8033964,pro_stp_run2_DMCC8033964,BLACK,InCon,PC50,yellow,2400,220010,32108,34,yellow,yellow,yellow,yellow,1,586,yellowBLACK,187.902,220596,773.902,1,28.405,231.206,434.007,202.821,405.622,608.423,PC50InCon,yellow
2,pro,stp,2,DMCC8033964,pro_stp_run2_DMCC8033964,BLACK,InCon,PC50,pink,2400,224810,32108,35,pink,pink,pink,pink,1,610,pinkBLACK,192.702,225420,802.702,1,28.405,231.206,434.007,202.821,405.622,608.423,PC50InCon,pink
2,pro,stp,2,DMCC8033964,pro_stp_run2_DMCC8033964,BLACK,Con,PC50,black,3600,229609,32108,36,black,black,black,black,1,684.5,blackBLACK,197.501,230293.5,882.001,1,28.405,231.206,434.007,202.821,405.622,608.423,PC50Con,black
2,pro,stp,2,DMCC8033964,pro_stp_run2_DMCC8033964,BLUE,InCon,bias,purple,2400,265621,32108,37,purple,purple,purple,purple,1,641,purpleBLUE,233.513,266262,874.513,1,28.405,231.206,434.007,202.821,405.622,608.423,biasInCon,purple
2,pro,stp,2,DMCC8033964,pro_stp_run2_DMCC8033964,PURPLE,Con,bias,purple,1200,270420,32108,38,purple,purple,purple,purple,1,561,purplePURPLE,238.312,270981,799.312,1,28.405,231.206,434.007,202.821,405.622,608.423,biasCon,purple
2,pro,stp,2,DMCC8033964,pro_stp_run2_DMCC8033964,BLUE,InCon,bias,red,2400,274020,32108,39,red,red,red,red,1,660.5,redBLUE,241.912,274680.5,902.412,1,28.405,231.206,434.007,202.821,405.622,608.423,biasInCon,red
2,pro,stp,2,DMCC8033964,pro_stp_run2_DMCC8033964,RED,InCon,bias,white,1200,278820,32108,40,white,white,white,white,1,641,whiteRED,246.712,279461,887.712,1,28.405,231.206,434.007,202.821,405.622,608.423,biasInCon,white
2,pro,stp,2,DMCC8033964,pro_stp_run2_DMCC8033964,BLUE,InCon,bias,white,1200,282420,32108,41,white,white,white,white,1,606.5,whiteBLUE,250.312,283026.5,856.812,1,28.405,231.206,434.007,202.821,405.622,608.423,biasInCon,white
2,pro,stp,2,DMCC8033964,pro_stp_run2_DMCC8033964,WHITE,InCon,bias,blue,2400,286019,32108,42,blue,blue,blue,blue,1,710,blueWHITE,253.911,286729,963.911,1,28.405,231.206,434.007,202.821,405.622,608.423,biasInCon,blue
2,pro,stp,2,DMCC8033964,pro_stp_run2_DMCC8033964,RED,InCon,bias,white,3600,290819,32108,43,white,white,white,white,1,651.5,whiteRED,258.711,291470.5,910.211,1,28.405,231.206,434.007,202.821,405.622,608.423,biasInCon,white
2,pro,stp,2,DMCC8033964,pro_stp_run2_DMCC8033964,PINK,Con,PC50,pink,3600,296819,32108,44,pink,pink,pink,pink,1,517,pinkPINK,264.711,297336,781.711,1,28.405,231.206,434.007,202.821,405.622,608.423,PC50Con,pink
2,pro,stp,2,DMCC8033964,pro_stp_run2_DMCC8033964,RED,Con,bias,red,1200,302818,32108,45,red,red,red,red,1,609.5,redRED,270.71,303427.5,880.21,1,28.405,231.206,434.007,202.821,405.622,608.423,biasCon,red
2,pro,stp,2,DMCC8033964,pro_stp_run2_DMCC8033964,BLACK,Con,PC50,black,3600,306418,32108,46,black,black,black,black,1,617.5,blackBLACK,274.31,307035.5,891.81,1,28.405,231.206,434.007,202.821,405.622,608.423,PC50Con,black
2,pro,stp,2,DMCC8033964,pro_stp_run2_DMCC8033964,PURPLE,InCon,bias,red,3600,312418,32108,47,red,red,red,red,1,664,redPURPLE,280.31,313082,944.31,1,28.405,231.206,434.007,202.821,405.622,608.423,biasInCon,red
2,pro,stp,2,DMCC8033964,pro_stp_run2_DMCC8033964,BLACK,Con,PC50,black,2400,318417,32108,48,black,black,black,black,1,662.5,blackBLACK,286.309,319079.5,948.809,1,28.405,231.206,434.007,202.821,405.622,608.423,PC50Con,black
2,pro,stp,2,DMCC8033964,pro_stp_run2_DMCC8033964,RED,InCon,bias,blue,2400,323217,32108,49,blue,blue,blue,blue,1,635.5,blueRED,291.109,323852.5,926.609,1,28.405,231.206,434.007,202.821,405.622,608.423,biasInCon,blue
2,pro,stp,2,DMCC8033964,pro_stp_run2_DMCC8033964,BLACK,InCon,PC50,yellow,3600,328017,32108,50,yellow,yellow,yellow,yellow,1,701.5,yellowBLACK,295.909,328718.5,997.409,1,28.405,231.206,434.007,202.821,405.622,608.423,PC50InCon,yellow
2,pro,stp,2,DMCC8033964,pro_stp_run2_DMCC8033964,RED,InCon,bias,purple,2400,334016,32108,51,purple,purple,purple,purple,1,650.5,purpleRED,301.908,334666.5,952.408,1,28.405,231.206,434.007,202.821,405.622,608.423,biasInCon,purple
2,pro,stp,2,DMCC8033964,pro_stp_run2_DMCC8033964,BLUE,InCon,bias,purple,1200,338816,32108,52,purple,purple,purple,purple,1,621,purpleBLUE,306.708,339437,927.708,1,28.405,231.206,434.007,202.821,405.622,608.423,biasInCon,purple
2,pro,stp,2,DMCC8033964,pro_stp_run2_DMCC8033964,PURPLE,InCon,bias,white,2400,342416,32108,53,white,white,white,white,1,631.5,whitePURPLE,310.308,343047.5,941.808,1,28.405,231.206,434.007,202.821,405.622,608.423,biasInCon,white
2,pro,stp,2,DMCC8033964,pro_stp_run2_DMCC8033964,PURPLE,InCon,bias,blue,2400,347216,32108,54,blue,blue,blue,blue,1,853.5,bluePURPLE,315.108,348069.5,1168.608,1,28.405,231.206,434.007,202.821,405.622,608.423,biasInCon,blue
2,pro,stp,2,DMCC8033964,pro_stp_run2_DMCC8033964,WHITE,Con,bias,white,3600,352015,32108,55,white,white,white,white,1,607,whiteWHITE,319.907,352622,926.907,1,28.405,231.206,434.007,202.821,405.622,608.423,biasCon,white
2,pro,stp,2,DMCC8033964,pro_stp_run2_DMCC8033964,BLUE,InCon,bias,red,1200,358015,32108,56,red,red,red,red,1,647.5,redBLUE,325.907,358662.5,973.407,1,28.405,231.206,434.007,202.821,405.622,608.423,biasInCon,red
2,pro,stp,2,DMCC8033964,pro_stp_run2_DMCC8033964,WHITE,Con,bias,white,1200,361615,32108,57,white,white,white,white,1,641,whiteWHITE,329.507,362256,970.507,1,28.405,231.206,434.007,202.821,405.622,608.423,biasCon,white
2,pro,stp,2,DMCC8033964,pro_stp_run2_DMCC8033964,BLUE,Con,bias,blue,3600,365214,32108,58,blue,blue,blue,blue,1,630.5,blueBLUE,333.106,365844.5,963.606,1,28.405,231.206,434.007,202.821,405.622,608.423,biasCon,blue
2,pro,stp,2,DMCC8033964,pro_stp_run2_DMCC8033964,PINK,InCon,PC50,green,3600,371214,32108,59,green,green,green,green,1,668.5,greenPINK,339.106,371882.5,1007.606,1,28.405,231.206,434.007,202.821,405.622,608.423,PC50InCon,green
2,pro,stp,2,DMCC8033964,pro_stp_run2_DMCC8033964,YELLOW,Con,PC50,yellow,1200,377214,32108,60,yellow,yellow,yellow,yellow,1,625.5,yellowYELLOW,345.106,377839.5,970.606,1,28.405,231.206,434.007,202.821,405.622,608.423,PC50Con,yellow
2,pro,stp,2,DMCC8033964,pro_stp_run2_DMCC8033964,YELLOW,InCon,PC50,green,1200,380814,32108,61,green,green,green,green,1,737.5,greenYELLOW,348.706,381551.5,1086.206,1,28.405,231.206,434.007,202.821,405.622,608.423,PC50InCon,green
2,pro,stp,2,DMCC8033964,pro_stp_run2_DMCC8033964,BLACK,InCon,PC50,pink,3600,384413,32108,62,pink,pink,pink,pink,1,614,pinkBLACK,352.305,385027,966.305,1,28.405,231.206,434.007,202.821,405.622,608.423,PC50InCon,pink
2,pro,stp,2,DMCC8033964,pro_stp_run2_DMCC8033964,RED,Con,bias,red,3600,390413,32108,63,red,red,red,red,1,667.5,redRED,358.305,391080.5,1025.805,1,28.405,231.206,434.007,202.821,405.622,608.423,biasCon,red
2,pro,stp,2,DMCC8033964,pro_stp_run2_DMCC8033964,GREEN,Con,PC50,green,2400,396413,32108,64,green,green,green,green,1,630.5,greenGREEN,364.305,397043.5,994.805,1,28.405,231.206,434.007,202.821,405.622,608.423,PC50Con,green
2,pro,stp,2,DMCC8033964,pro_stp_run2_DMCC8033964,PURPLE,InCon,bias,red,1200,401212,32108,65,red,red,red,red,1,698,redPURPLE,369.104,401910,1067.104,1,28.405,231.206,434.007,202.821,405.622,608.423,biasInCon,red
2,pro,stp,2,DMCC8033964,pro_stp_run2_DMCC8033964,WHITE,InCon,bias,purple,1200,404812,32108,66,purple,purple,purple,purple,1,649.5,purpleWHITE,372.704,405461.5,1022.204,1,28.405,231.206,434.007,202.821,405.622,608.423,biasInCon,purple
2,pro,stp,2,DMCC8033964,pro_stp_run2_DMCC8033964,PINK,InCon,PC50,yellow,3600,408412,32108,67,yellow,yellow,yellow,yellow,1,657.5,yellowPINK,376.304,409069.5,1033.804,1,28.405,231.206,434.007,202.821,405.622,608.423,PC50InCon,yellow
2,pro,stp,2,DMCC8033964,pro_stp_run2_DMCC8033964,PURPLE,InCon,bias,white,2400,414411,32108,68,white,white,white,white,1,658.5,whitePURPLE,382.303,415069.5,1040.803,1,28.405,231.206,434.007,202.821,405.622,608.423,biasInCon,white
2,pro,stp,2,DMCC8033964,pro_stp_run2_DMCC8033964,PINK,Con,PC50,pink,3600,419211,32108,69,pink,pink - faint,pink,pink,1,542.5,pinkPINK,387.103,419753.5,929.603,1,28.405,231.206,434.007,202.821,405.622,608.423,PC50Con,pink
2,pro,stp,2,DMCC8033964,pro_stp_run2_DMCC8033964,WHITE,InCon,bias,blue,1200,425211,32108,70,blue,blue,blue,blue,1,620,blueWHITE,393.103,425831,1013.103,1,28.405,231.206,434.007,202.821,405.622,608.423,biasInCon,blue
2,pro,stp,2,DMCC8033964,pro_stp_run2_DMCC8033964,WHITE,InCon,bias,red,2400,428811,32108,71,red,red,red,red,1,654,redWHITE,396.703,429465,1050.703,1,28.405,231.206,434.007,202.821,405.622,608.423,biasInCon,red
2,pro,stp,2,DMCC8033964,pro_stp_run2_DMCC8033964,GREEN,InCon,PC50,black,2400,433610,32108,72,black,black,black,black,1,682,blackGREEN,401.502,434292,1083.502,1,28.405,231.206,434.007,202.821,405.622,608.423,PC50InCon,black
2,pro,stp,2,DMCC8033964,pro_stp_run2_DMCC8033964,BLUE,InCon,bias,red,2400,468408,32108,73,red,red,red,red,1,660,redBLUE,436.3,469068,1096.3,1,28.405,231.206,434.007,202.821,405.622,608.423,biasInCon,red
2,pro,stp,2,DMCC8033964,pro_stp_run2_DMCC8033964,GREEN,InCon,PC50,black,2400,473208,32108,74,black,black,black,black,1,601,blackGREEN,441.1,473809,1042.1,1,28.405,231.206,434.007,202.821,405.622,608.423,PC50InCon,black
2,pro,stp,2,DMCC8033964,pro_stp_run2_DMCC8033964,PINK,InCon,PC50,green,3600,478008,32108,75,green,green,green,green,1,721,greenPINK,445.9,478729,1166.9,1,28.405,231.206,434.007,202.821,405.622,608.423,PC50InCon,green
2,pro,stp,2,DMCC8033964,pro_stp_run2_DMCC8033964,WHITE,InCon,bias,red,1200,484020,32108,76,red,red,red,red,1,657.5,redWHITE,451.912,484677.5,1109.412,1,28.405,231.206,434.007,202.821,405.622,608.423,biasInCon,red
2,pro,stp,2,DMCC8033964,pro_stp_run2_DMCC8033964,BLUE,InCon,bias,purple,1200,487620,32108,77,purple,purple,purple,purple,1,687.5,purpleBLUE,455.512,488307.5,1143.012,1,28.405,231.206,434.007,202.821,405.622,608.423,biasInCon,purple
2,pro,stp,2,DMCC8033964,pro_stp_run2_DMCC8033964,PURPLE,InCon,bias,red,3600,491220,32108,78,red,red,red,red,1,683,redPURPLE,459.112,491903,1142.112,1,28.405,231.206,434.007,202.821,405.622,608.423,biasInCon,red
2,pro,stp,2,DMCC8033964,pro_stp_run2_DMCC8033964,WHITE,InCon,bias,purple,2400,497220,32108,79,purple,purple,purple,purple,1,689,purpleWHITE,465.112,497909,1154.112,1,28.405,231.206,434.007,202.821,405.622,608.423,biasInCon,purple
2,pro,stp,2,DMCC8033964,pro_stp_run2_DMCC8033964,RED,InCon,bias,blue,1200,502019,32108,80,blue,blue,blue,blue,1,672,blueRED,469.911,502691,1141.911,1,28.405,231.206,434.007,202.821,405.622,608.423,biasInCon,blue
2,pro,stp,2,DMCC8033964,pro_stp_run2_DMCC8033964,WHITE,InCon,bias,blue,3600,505619,32108,81,blue,blue,blue,blue,1,684.5,blueWHITE,473.511,506303.5,1158.011,1,28.405,231.206,434.007,202.821,405.622,608.423,biasInCon,blue
2,pro,stp,2,DMCC8033964,pro_stp_run2_DMCC8033964,BLACK,Con,PC50,black,1200,511619,32108,82,black,black,black,black,1,655,blackBLACK,479.511,512274,1134.511,1,28.405,231.206,434.007,202.821,405.622,608.423,PC50Con,black
2,pro,stp,2,DMCC8033964,pro_stp_run2_DMCC8033964,PURPLE,InCon,bias,white,3600,515219,32108,83,white,white,white,white,1,656,whitePURPLE,483.111,515875,1139.111,1,28.405,231.206,434.007,202.821,405.622,608.423,biasInCon,white
2,pro,stp,2,DMCC8033964,pro_stp_run2_DMCC8033964,RED,InCon,bias,white,2400,521218,32108,84,white,white,white,white,1,645,whiteRED,489.11,521863,1134.11,1,28.405,231.206,434.007,202.821,405.622,608.423,biasInCon,white
2,pro,stp,2,DMCC8033964,pro_stp_run2_DMCC8033964,RED,InCon,bias,white,3600,526018,32108,85,white,white,white,white,1,652.5,whiteRED,493.91,526670.5,1146.41,1,28.405,231.206,434.007,202.821,405.622,608.423,biasInCon,white
2,pro,stp,2,DMCC8033964,pro_stp_run2_DMCC8033964,RED,InCon,bias,purple,2400,532018,32108,86,purple,purple,purple,purple,1,594,purpleRED,499.91,532612,1093.91,1,28.405,231.206,434.007,202.821,405.622,608.423,biasInCon,purple
2,pro,stp,2,DMCC8033964,pro_stp_run2_DMCC8033964,WHITE,Con,bias,white,2400,536817,32108,87,white,white,white,white,1,605.5,whiteWHITE,504.709,537422.5,1110.209,1,28.405,231.206,434.007,202.821,405.622,608.423,biasCon,white
2,pro,stp,2,DMCC8033964,pro_stp_run2_DMCC8033964,BLUE,InCon,bias,red,3600,541617,32108,88,red,red,red,red,1,631.5,redBLUE,509.509,542248.5,1141.009,1,28.405,231.206,434.007,202.821,405.622,608.423,biasInCon,red
2,pro,stp,2,DMCC8033964,pro_stp_run2_DMCC8033964,BLUE,Con,bias,blue,1200,547617,32108,89,blue,blue,blue,blue,1,653,blueBLUE,515.509,548270,1168.509,1,28.405,231.206,434.007,202.821,405.622,608.423,biasCon,blue
2,pro,stp,2,DMCC8033964,pro_stp_run2_DMCC8033964,YELLOW,Con,PC50,yellow,1200,551216,32108,90,yellow,yellow,yellow,yellow,1,643.5,yellowYELLOW,519.108,551859.5,1162.608,1,28.405,231.206,434.007,202.821,405.622,608.423,PC50Con,yellow
2,pro,stp,2,DMCC8033964,pro_stp_run2_DMCC8033964,RED,Con,bias,red,1200,554816,32108,91,red,red,red,red,1,618,redRED,522.708,555434,1140.708,1,28.405,231.206,434.007,202.821,405.622,608.423,biasCon,red
2,pro,stp,2,DMCC8033964,pro_stp_run2_DMCC8033964,PURPLE,InCon,bias,red,1200,558416,32108,92,red,red,red,red,1,697.5,redPURPLE,526.308,559113.5,1223.808,1,28.405,231.206,434.007,202.821,405.622,608.423,biasInCon,red
2,pro,stp,2,DMCC8033964,pro_stp_run2_DMCC8033964,PURPLE,InCon,bias,white,2400,562016,32108,93,white,white,white,white,1,673,whitePURPLE,529.908,562689,1202.908,1,28.405,231.206,434.007,202.821,405.622,608.423,biasInCon,white
2,pro,stp,2,DMCC8033964,pro_stp_run2_DMCC8033964,PINK,InCon,PC50,yellow,3600,566815,32108,94,yellow,yellow,yellow,yellow,1,638.5,yellowPINK,534.707,567453.5,1173.207,1,28.405,231.206,434.007,202.821,405.622,608.423,PC50InCon,yellow
2,pro,stp,2,DMCC8033964,pro_stp_run2_DMCC8033964,WHITE,Con,bias,white,3600,572815,32108,95,white,white,white,white,1,603.5,whiteWHITE,540.707,573418.5,1144.207,1,28.405,231.206,434.007,202.821,405.622,608.423,biasCon,white
2,pro,stp,2,DMCC8033964,pro_stp_run2_DMCC8033964,BLUE,InCon,bias,white,2400,578815,32108,96,white,white,white,white,1,607.5,whiteBLUE,546.707,579422.5,1154.207,1,28.405,231.206,434.007,202.821,405.622,608.423,biasInCon,white
2,pro,stp,2,DMCC8033964,pro_stp_run2_DMCC8033964,BLACK,InCon,PC50,yellow,2400,583614,32108,97,yellow,yellow,yellow,yellow,1,701,yellowBLACK,551.506,584315,1252.506,1,28.405,231.206,434.007,202.821,405.622,608.423,PC50InCon,yellow
2,pro,stp,2,DMCC8033964,pro_stp_run2_DMCC8033964,BLACK,InCon,PC50,pink,2400,588414,32108,98,pink,pink,pink,pink,1,638,pinkBLACK,556.306,589052,1194.306,1,28.405,231.206,434.007,202.821,405.622,608.423,PC50InCon,pink
2,pro,stp,2,DMCC8033964,pro_stp_run2_DMCC8033964,PINK,Con,PC50,pink,1200,593214,32108,99,pink,pink,pink,pink,1,571.5,pinkPINK,561.106,593785.5,1132.606,1,28.405,231.206,434.007,202.821,405.622,608.423,PC50Con,pink
2,pro,stp,2,DMCC8033964,pro_stp_run2_DMCC8033964,PURPLE,Con,bias,purple,3600,596814,32108,100,purple,purple,purple,purple,1,625.5,purplePURPLE,564.706,597439.5,1190.206,1,28.405,231.206,434.007,202.821,405.622,608.423,biasCon,purple
2,pro,stp,2,DMCC8033964,pro_stp_run2_DMCC8033964,PURPLE,InCon,bias,blue,3600,602813,32108,101,blue,blue,blue,blue,1,594.5,bluePURPLE,570.705,603407.5,1165.205,1,28.405,231.206,434.007,202.821,405.622,608.423,biasInCon,blue
2,pro,stp,2,DMCC8033964,pro_stp_run2_DMCC8033964,BLACK,Con,PC50,black,2400,608813,32108,102,black,black,black,black,1,580,blackBLACK,576.705,609393,1156.705,1,28.405,231.206,434.007,202.821,405.622,608.423,PC50Con,black
2,pro,stp,2,DMCC8033964,pro_stp_run2_DMCC8033964,GREEN,Con,PC50,green,1200,613613,32108,103,green,green,green,green,1,642,greenGREEN,581.505,614255,1223.505,1,28.405,231.206,434.007,202.821,405.622,608.423,PC50Con,green
2,pro,stp,2,DMCC8033964,pro_stp_run2_DMCC8033964,BLUE,InCon,bias,purple,3600,617212,32108,104,purple,purple,purple,purple,1,674.5,purpleBLUE,585.104,617886.5,1259.604,1,28.405,231.206,434.007,202.821,405.622,608.423,biasInCon,purple
2,pro,stp,2,DMCC8033964,pro_stp_run2_DMCC8033964,WHITE,InCon,bias,blue,1200,623212,32108,105,blue,blue,blue,blue,1,596.5,blueWHITE,591.104,623808.5,1187.604,1,28.405,231.206,434.007,202.821,405.622,608.423,biasInCon,blue
2,pro,stp,2,DMCC8033964,pro_stp_run2_DMCC8033964,YELLOW,InCon,PC50,green,3600,626812,32108,106,green,green,green,green,1,712.5,greenYELLOW,594.704,627524.5,1307.204,1,28.405,231.206,434.007,202.821,405.622,608.423,PC50InCon,green
2,pro,stp,2,DMCC8033964,pro_stp_run2_DMCC8033964,RED,Con,bias,red,2400,632811,32108,107,red,red,red,red,1,585,redRED,600.703,633396,1185.703,1,28.405,231.206,434.007,202.821,405.622,608.423,biasCon,red
2,pro,stp,2,DMCC8033964,pro_stp_run2_DMCC8033964,PINK,Con,PC50,pink,1200,637611,32108,108,pink,pink,pink,pink,1,573.5,pinkPINK,605.503,638184.5,1179.003,1,28.405,231.206,434.007,202.821,405.622,608.423,PC50Con,pink
2,rea,stp,1,DMCC8033964,rea_stp_run1_DMCC8033964,YELLOW,InCon,PC50,black,1200,80099,49378,1,black,black,black,black,1,736,blackYELLOW,30.721,80835,766.721,1,28.415,251.612,473.624,223.228,445.226,666.037,PC50InCon,black
2,rea,stp,1,DMCC8033964,rea_stp_run1_DMCC8033964,RED,Con,bias,red,1200,83699,49378,2,red,red,red,red,1,628.5,redRED,34.321,84327.5,662.821,1,28.415,251.612,473.624,223.228,445.226,666.037,biasCon,red
2,rea,stp,1,DMCC8033964,rea_stp_run1_DMCC8033964,PINK,Con,PC50,pink,3600,87299,49378,3,pink,pink - distorted,pink,pink,1,618.5,pinkPINK,37.921,87917.5,656.421,1,28.415,251.612,473.624,223.228,445.226,666.037,PC50Con,pink
2,rea,stp,1,DMCC8033964,rea_stp_run1_DMCC8033964,GREEN,Con,PC50,green,3600,93298,49378,4,green,green - distorted,green,green,1,603,greenGREEN,43.92,93901,646.92,1,28.415,251.612,473.624,223.228,445.226,666.037,PC50Con,green
2,rea,stp,1,DMCC8033964,rea_stp_run1_DMCC8033964,BLUE,Con,bias,blue,1200,99298,49378,5,blue,blue,blue,blue,1,700.5,blueBLUE,49.92,99998.5,750.42,1,28.415,251.612,473.624,223.228,445.226,666.037,biasCon,blue
2,rea,stp,1,DMCC8033964,rea_stp_run1_DMCC8033964,RED,Con,bias,red,2400,102898,49378,6,red,red,red,red,1,622.5,redRED,53.52,103520.5,676.02,1,28.415,251.612,473.624,223.228,445.226,666.037,biasCon,red
2,rea,stp,1,DMCC8033964,rea_stp_run1_DMCC8033964,RED,InCon,bias,purple,1200,107697,49378,7,purple,purple,purple,purple,1,736,purpleRED,58.319,108433,794.319,1,28.415,251.612,473.624,223.228,445.226,666.037,biasInCon,purple
2,rea,stp,1,DMCC8033964,rea_stp_run1_DMCC8033964,BLUE,Con,bias,blue,2400,111297,49378,8,blue,blue,blue,blue,1,643.5,blueBLUE,61.919,111940.5,705.419,1,28.415,251.612,473.624,223.228,445.226,666.037,biasCon,blue
2,rea,stp,1,DMCC8033964,rea_stp_run1_DMCC8033964,YELLOW,Con,PC50,yellow,3600,116097,49378,9,yellow,yellow,yellow,yellow,1,586.5,yellowYELLOW,66.719,116683.5,653.219,1,28.415,251.612,473.624,223.228,445.226,666.037,PC50Con,yellow
2,rea,stp,1,DMCC8033964,rea_stp_run1_DMCC8033964,RED,Con,bias,red,3600,122096,49378,10,red,red,red,red,1,598,redRED,72.718,122694,670.718,1,28.415,251.612,473.624,223.228,445.226,666.037,biasCon,red
2,rea,stp,1,DMCC8033964,rea_stp_run1_DMCC8033964,BLUE,InCon,bias,white,2400,128096,49378,11,white,white,white,white,1,649,whiteBLUE,78.718,128745,727.718,1,28.415,251.612,473.624,223.228,445.226,666.037,biasInCon,white
2,rea,stp,1,DMCC8033964,rea_stp_run1_DMCC8033964,RED,Con,bias,red,2400,132896,49378,12,red,red,red,red,1,563,redRED,83.518,133459,646.518,1,28.415,251.612,473.624,223.228,445.226,666.037,biasCon,red
2,rea,stp,1,DMCC8033964,rea_stp_run1_DMCC8033964,BLUE,Con,bias,blue,3600,137695,49378,13,blue,blue,blue,blue,1,605.5,blueBLUE,88.317,138300.5,693.817,1,28.415,251.612,473.624,223.228,445.226,666.037,biasCon,blue
2,rea,stp,1,DMCC8033964,rea_stp_run1_DMCC8033964,PURPLE,Con,bias,purple,1200,143695,49378,14,purple,purple,purple,purple,1,519.5,purplePURPLE,94.317,144214.5,613.817,1,28.415,251.612,473.624,223.228,445.226,666.037,biasCon,purple
2,rea,stp,1,DMCC8033964,rea_stp_run1_DMCC8033964,WHITE,InCon,bias,purple,3600,147295,49378,15,purple,purple,purple,purple,1,535,purpleWHITE,97.917,147830,632.917,1,28.415,251.612,473.624,223.228,445.226,666.037,biasInCon,purple
2,rea,stp,1,DMCC8033964,rea_stp_run1_DMCC8033964,BLUE,Con,bias,blue,1200,153294,49378,16,blue,blue,blue,blue,1,559.5,blueBLUE,103.916,153853.5,663.416,1,28.415,251.612,473.624,223.228,445.226,666.037,biasCon,blue
2,rea,stp,1,DMCC8033964,rea_stp_run1_DMCC8033964,PURPLE,InCon,bias,white,1200,156894,49378,17,white,white,white,white,1,676,whitePURPLE,107.516,157570,783.516,1,28.415,251.612,473.624,223.228,445.226,666.037,biasInCon,white
2,rea,stp,1,DMCC8033964,rea_stp_run1_DMCC8033964,PURPLE,Con,bias,purple,2400,160494,49378,18,purple,purple,purple,purple,1,599.5,purplePURPLE,111.116,161093.5,710.616,1,28.415,251.612,473.624,223.228,445.226,666.037,biasCon,purple
2,rea,stp,1,DMCC8033964,rea_stp_run1_DMCC8033964,RED,Con,bias,red,3600,165293,49378,19,red,red,red,red,1,547.5,redRED,115.915,165840.5,663.415,1,28.415,251.612,473.624,223.228,445.226,666.037,biasCon,red
2,rea,stp,1,DMCC8033964,rea_stp_run1_DMCC8033964,BLUE,InCon,bias,purple,1200,171293,49378,20,purple,purple,purple,purple,1,603.5,purpleBLUE,121.915,171896.5,725.415,1,28.415,251.612,473.624,223.228,445.226,666.037,biasInCon,purple
2,rea,stp,1,DMCC8033964,rea_stp_run1_DMCC8033964,BLUE,Con,bias,blue,2400,174893,49378,21,blue,blue,blue,blue,1,675,blueBLUE,125.515,175568,800.515,1,28.415,251.612,473.624,223.228,445.226,666.037,biasCon,blue
2,rea,stp,1,DMCC8033964,rea_stp_run1_DMCC8033964,BLUE,InCon,bias,white,2400,179692,49378,22,white,white,white,white,1,570.5,whiteBLUE,130.314,180262.5,700.814,1,28.415,251.612,473.624,223.228,445.226,666.037,biasInCon,white
2,rea,stp,1,DMCC8033964,rea_stp_run1_DMCC8033964,PINK,InCon,PC50,yellow,2400,184492,49378,23,yellow,yellow,yellow,yellow,1,612,yellowPINK,135.114,185104,747.114,1,28.415,251.612,473.624,223.228,445.226,666.037,PC50InCon,yellow
2,rea,stp,1,DMCC8033964,rea_stp_run1_DMCC8033964,WHITE,InCon,bias,purple,3600,189292,49378,24,purple,purple,purple,purple,1,635,purpleWHITE,139.914,189927,774.914,1,28.415,251.612,473.624,223.228,445.226,666.037,biasInCon,purple
2,rea,stp,1,DMCC8033964,rea_stp_run1_DMCC8033964,RED,Con,bias,red,2400,195291,49378,25,red,red,red,red,1,574,redRED,145.913,195865,719.913,1,28.415,251.612,473.624,223.228,445.226,666.037,biasCon,red
