wave,session,task,run,subj,name,word,trial.type,pc,color,iti,time.target.onset.abs,time.scan.start,trial.num,listener1,listener2,cresp,response.final,acc.final,rt,item,time.target.onset,time.rt.abs,time.rt,acc,time.block1.on,time.block2.on,time.block3.on,time.block1.off,time.block2.off,time.block3.off,trialtype,resp
1,bas,stp,1,DMCC8760894,bas_stp_run1_DMCC8760894,RED,Con,bias,red,3600,97955,67248,1,red,red,red,red,1,785.5,redRED,30.707,98740.5,816.207,1,28.414,231.214,434.014,202.829,405.629,608.43,biasCon,red
1,bas,stp,1,DMCC8760894,bas_stp_run1_DMCC8760894,PURPLE,Con,bias,purple,2400,103955,67248,2,purple,purple,purple,purple,1,741.5,purplePURPLE,36.707,104696.5,778.207,1,28.414,231.214,434.014,202.829,405.629,608.43,biasCon,purple
1,bas,stp,1,DMCC8760894,bas_stp_run1_DMCC8760894,PURPLE,Con,bias,purple,2400,108754,67248,3,purple,purple,purple,purple,1,752.5,purplePURPLE,41.506,109506.5,794.006,1,28.414,231.214,434.014,202.829,405.629,608.43,biasCon,purple
1,bas,stp,1,DMCC8760894,bas_stp_run1_DMCC8760894,BLUE,Con,bias,blue,1200,113554,67248,4,blue,blue,blue,blue,1,775.5,blueBLUE,46.306,114329.5,821.806,1,28.414,231.214,434.014,202.829,405.629,608.43,biasCon,blue
1,bas,stp,1,DMCC8760894,bas_stp_run1_DMCC8760894,WHITE,Con,bias,white,1200,117154,67248,5,white,white,white,white,1,809,whiteWHITE,49.906,117963,858.906,1,28.414,231.214,434.014,202.829,405.629,608.43,biasCon,white
1,bas,stp,1,DMCC8760894,bas_stp_run1_DMCC8760894,YELLOW,InCon,PC50,black,1200,120753,67248,6,black,black,black,black,1,934,blackYELLOW,53.505,121687,987.505,1,28.414,231.214,434.014,202.829,405.629,608.43,PC50InCon,black
1,bas,stp,1,DMCC8760894,bas_stp_run1_DMCC8760894,PURPLE,Con,bias,purple,2400,124353,67248,7,purple,purple,purple,purple,1,782,purplePURPLE,57.105,125135,839.105,1,28.414,231.214,434.014,202.829,405.629,608.43,biasCon,purple
1,bas,stp,1,DMCC8760894,bas_stp_run1_DMCC8760894,GREEN,InCon,PC50,pink,3600,129153,67248,8,pink,pink,pink,pink,1,887,pinkGREEN,61.905,130040,948.905,1,28.414,231.214,434.014,202.829,405.629,608.43,PC50InCon,pink
1,bas,stp,1,DMCC8760894,bas_stp_run1_DMCC8760894,PINK,InCon,PC50,black,3600,135153,67248,9,black,black,black,black,1,643.5,blackPINK,67.905,135796.5,711.405,1,28.414,231.214,434.014,202.829,405.629,608.43,PC50InCon,black
1,bas,stp,1,DMCC8760894,bas_stp_run1_DMCC8760894,BLUE,Con,bias,blue,2400,141165,67248,10,blue,pink,blue,blue,1,754,blueBLUE,73.917,141919,827.917,1,28.414,231.214,434.014,202.829,405.629,608.43,biasCon,blue
1,bas,stp,1,DMCC8760894,bas_stp_run1_DMCC8760894,WHITE,Con,bias,white,3600,145965,67248,11,white,white,white,white,1,757,whiteWHITE,78.717,146722,835.717,1,28.414,231.214,434.014,202.829,405.629,608.43,biasCon,white
1,bas,stp,1,DMCC8760894,bas_stp_run1_DMCC8760894,PINK,Con,PC50,pink,1200,151965,67248,12,pink,pink,pink,pink,1,703,pinkPINK,84.717,152668,787.717,1,28.414,231.214,434.014,202.829,405.629,608.43,PC50Con,pink
1,bas,stp,1,DMCC8760894,bas_stp_run1_DMCC8760894,PURPLE,InCon,bias,red,1200,155565,67248,13,red,red,red,red,1,817,redPURPLE,88.317,156382,905.317,1,28.414,231.214,434.014,202.829,405.629,608.43,biasInCon,red
1,bas,stp,1,DMCC8760894,bas_stp_run1_DMCC8760894,BLUE,InCon,bias,purple,1200,159164,67248,14,purple,purple,purple,purple,1,872,purpleBLUE,91.916,160036,963.916,1,28.414,231.214,434.014,202.829,405.629,608.43,biasInCon,purple
1,bas,stp,1,DMCC8760894,bas_stp_run1_DMCC8760894,BLACK,InCon,PC50,green,2400,162764,67248,15,green,green,green,green,1,963,greenBLACK,95.516,163727,1058.516,1,28.414,231.214,434.014,202.829,405.629,608.43,PC50InCon,green
1,bas,stp,1,DMCC8760894,bas_stp_run1_DMCC8760894,YELLOW,Con,PC50,yellow,3600,167564,67248,16,yellow,yellow,yellow,yellow,1,723.5,yellowYELLOW,100.316,168287.5,823.816,1,28.414,231.214,434.014,202.829,405.629,608.43,PC50Con,yellow
1,bas,stp,1,DMCC8760894,bas_stp_run1_DMCC8760894,RED,Con,bias,red,2400,173563,67248,17,red,red,red,red,1,735.5,redRED,106.315,174298.5,841.815,1,28.414,231.214,434.014,202.829,405.629,608.43,biasCon,red
1,bas,stp,1,DMCC8760894,bas_stp_run1_DMCC8760894,PURPLE,Con,bias,purple,3600,178363,67248,18,purple,purple,purple,purple,1,678,purplePURPLE,111.115,179041,789.115,1,28.414,231.214,434.014,202.829,405.629,608.43,biasCon,purple
1,bas,stp,1,DMCC8760894,bas_stp_run1_DMCC8760894,RED,Con,bias,red,1200,184363,67248,19,red,red,red,red,1,737.5,redRED,117.115,185100.5,854.615,1,28.414,231.214,434.014,202.829,405.629,608.43,biasCon,red
1,bas,stp,1,DMCC8760894,bas_stp_run1_DMCC8760894,BLUE,Con,bias,blue,2400,187962,67248,20,blue,blue,blue,blue,1,742,blueBLUE,120.714,188704,862.714,1,28.414,231.214,434.014,202.829,405.629,608.43,biasCon,blue
1,bas,stp,1,DMCC8760894,bas_stp_run1_DMCC8760894,BLACK,Con,PC50,black,3600,192762,67248,21,black,black,black,black,1,708.5,blackBLACK,125.514,193470.5,834.014,1,28.414,231.214,434.014,202.829,405.629,608.43,PC50Con,black
1,bas,stp,1,DMCC8760894,bas_stp_run1_DMCC8760894,YELLOW,Con,PC50,yellow,1200,198762,67248,22,yellow,yellow,yellow,yellow,1,782.5,yellowYELLOW,131.514,199544.5,914.014,1,28.414,231.214,434.014,202.829,405.629,608.43,PC50Con,yellow
1,bas,stp,1,DMCC8760894,bas_stp_run1_DMCC8760894,GREEN,Con,PC50,green,3600,202362,67248,23,green,green,green,green,1,777.5,greenGREEN,135.114,203139.5,912.614,1,28.414,231.214,434.014,202.829,405.629,608.43,PC50Con,green
1,bas,stp,1,DMCC8760894,bas_stp_run1_DMCC8760894,WHITE,Con,bias,white,2400,208361,67248,24,white,white,white,white,1,702,whiteWHITE,141.113,209063,843.113,1,28.414,231.214,434.014,202.829,405.629,608.43,biasCon,white
1,bas,stp,1,DMCC8760894,bas_stp_run1_DMCC8760894,PURPLE,Con,bias,purple,2400,213161,67248,25,purple,purple,purple,purple,1,654,purplePURPLE,145.913,213815,799.913,1,28.414,231.214,434.014,202.829,405.629,608.43,biasCon,purple
1,bas,stp,1,DMCC8760894,bas_stp_run1_DMCC8760894,BLUE,InCon,bias,red,1200,217961,67248,26,red,red,red,red,1,663,redBLUE,150.713,218624,813.713,1,28.414,231.214,434.014,202.829,405.629,608.43,biasInCon,red
1,bas,stp,1,DMCC8760894,bas_stp_run1_DMCC8760894,YELLOW,InCon,PC50,pink,3600,221560,67248,27,pink,pink,pink,pink,1,795.5,pinkYELLOW,154.312,222355.5,949.812,1,28.414,231.214,434.014,202.829,405.629,608.43,PC50InCon,pink
1,bas,stp,1,DMCC8760894,bas_stp_run1_DMCC8760894,GREEN,InCon,PC50,yellow,1200,227560,67248,28,yellow,yellow,yellow,yellow,1,763.5,yellowGREEN,160.312,228323.5,923.812,1,28.414,231.214,434.014,202.829,405.629,608.43,PC50InCon,yellow
1,bas,stp,1,DMCC8760894,bas_stp_run1_DMCC8760894,WHITE,InCon,bias,blue,1200,231160,67248,29,blue,blue,blue,blue,1,709,blueWHITE,163.912,231869,872.912,1,28.414,231.214,434.014,202.829,405.629,608.43,biasInCon,blue
1,bas,stp,1,DMCC8760894,bas_stp_run1_DMCC8760894,BLUE,Con,bias,blue,2400,234759,67248,30,blue,blue,blue,blue,1,643,blueBLUE,167.511,235402,810.511,1,28.414,231.214,434.014,202.829,405.629,608.43,biasCon,blue
1,bas,stp,1,DMCC8760894,bas_stp_run1_DMCC8760894,RED,InCon,bias,white,3600,239559,67248,31,white,white,white,white,1,690.5,whiteRED,172.311,240249.5,862.811,1,28.414,231.214,434.014,202.829,405.629,608.43,biasInCon,white
1,bas,stp,1,DMCC8760894,bas_stp_run1_DMCC8760894,RED,Con,bias,red,2400,245559,67248,32,red,red,red,red,1,624.5,redRED,178.311,246183.5,802.811,1,28.414,231.214,434.014,202.829,405.629,608.43,biasCon,red
1,bas,stp,1,DMCC8760894,bas_stp_run1_DMCC8760894,PURPLE,InCon,bias,white,3600,250358,67248,33,white,white,white,white,1,713,whitePURPLE,183.11,251071,896.11,1,28.414,231.214,434.014,202.829,405.629,608.43,biasInCon,white
1,bas,stp,1,DMCC8760894,bas_stp_run1_DMCC8760894,BLUE,Con,bias,blue,1200,256358,67248,34,blue,blue,blue,blue,1,683,blueBLUE,189.11,257041,872.11,1,28.414,231.214,434.014,202.829,405.629,608.43,biasCon,blue
1,bas,stp,1,DMCC8760894,bas_stp_run1_DMCC8760894,GREEN,Con,PC50,green,2400,259958,67248,35,green,green,green,green,1,727.5,greenGREEN,192.71,260685.5,920.21,1,28.414,231.214,434.014,202.829,405.629,608.43,PC50Con,green
1,bas,stp,1,DMCC8760894,bas_stp_run1_DMCC8760894,WHITE,Con,bias,white,3600,264758,67248,36,white,white,white,white,1,671.5,whiteWHITE,197.51,265429.5,869.01,1,28.414,231.214,434.014,202.829,405.629,608.43,biasCon,white
1,bas,stp,1,DMCC8760894,bas_stp_run1_DMCC8760894,PURPLE,Con,bias,purple,3600,300755,67248,37,purple,purple,purple,purple,1,698,purplePURPLE,233.507,301453,931.507,1,28.414,231.214,434.014,202.829,405.629,608.43,biasCon,purple
1,bas,stp,1,DMCC8760894,bas_stp_run1_DMCC8760894,GREEN,Con,PC50,green,2400,306755,67248,38,green,green,green,green,1,708,greenGREEN,239.507,307463,947.507,1,28.414,231.214,434.014,202.829,405.629,608.43,PC50Con,green
1,bas,stp,1,DMCC8760894,bas_stp_run1_DMCC8760894,WHITE,Con,bias,white,1200,311555,67248,39,white,white,white,white,1,603.5,whiteWHITE,244.307,312158.5,847.807,1,28.414,231.214,434.014,202.829,405.629,608.43,biasCon,white
1,bas,stp,1,DMCC8760894,bas_stp_run1_DMCC8760894,RED,Con,bias,red,3600,315154,67248,40,red,red,red,red,1,601,redRED,247.906,315755,848.906,1,28.414,231.214,434.014,202.829,405.629,608.43,biasCon,red
1,bas,stp,1,DMCC8760894,bas_stp_run1_DMCC8760894,BLUE,InCon,bias,red,2400,321154,67248,41,red,red,red,red,1,714.5,redBLUE,253.906,321868.5,968.406,1,28.414,231.214,434.014,202.829,405.629,608.43,biasInCon,red
1,bas,stp,1,DMCC8760894,bas_stp_run1_DMCC8760894,YELLOW,InCon,PC50,black,3600,325954,67248,42,black,black,black,black,1,669.5,blackYELLOW,258.706,326623.5,928.206,1,28.414,231.214,434.014,202.829,405.629,608.43,PC50InCon,black
1,bas,stp,1,DMCC8760894,bas_stp_run1_DMCC8760894,RED,Con,bias,red,2400,331953,67248,43,red,red,red,red,1,613.5,redRED,264.705,332566.5,878.205,1,28.414,231.214,434.014,202.829,405.629,608.43,biasCon,red
1,bas,stp,1,DMCC8760894,bas_stp_run1_DMCC8760894,PINK,InCon,PC50,black,3600,336753,67248,44,black,black,black,black,1,587.5,blackPINK,269.505,337340.5,857.005,1,28.414,231.214,434.014,202.829,405.629,608.43,PC50InCon,black
1,bas,stp,1,DMCC8760894,bas_stp_run1_DMCC8760894,BLUE,Con,bias,blue,1200,342766,67248,45,blue,blue,blue,blue,1,666.5,blueBLUE,275.518,343432.5,942.018,1,28.414,231.214,434.014,202.829,405.629,608.43,biasCon,blue
1,bas,stp,1,DMCC8760894,bas_stp_run1_DMCC8760894,YELLOW,InCon,PC50,pink,1200,346366,67248,46,pink,pink,pink,pink,1,723.5,pinkYELLOW,279.118,347089.5,1002.618,1,28.414,231.214,434.014,202.829,405.629,608.43,PC50InCon,pink
1,bas,stp,1,DMCC8760894,bas_stp_run1_DMCC8760894,PURPLE,Con,bias,purple,2400,349965,67248,47,purple,purple,purple,purple,1,747,purplePURPLE,282.717,350712,1029.717,1,28.414,231.214,434.014,202.829,405.629,608.43,biasCon,purple
1,bas,stp,1,DMCC8760894,bas_stp_run1_DMCC8760894,GREEN,InCon,PC50,pink,1200,354765,67248,48,pink,pink,pink,pink,1,741,pinkGREEN,287.517,355506,1028.517,1,28.414,231.214,434.014,202.829,405.629,608.43,PC50InCon,pink
1,bas,stp,1,DMCC8760894,bas_stp_run1_DMCC8760894,RED,InCon,bias,white,3600,358365,67248,49,white,white,white,white,1,701,whiteRED,291.117,359066,992.117,1,28.414,231.214,434.014,202.829,405.629,608.43,biasInCon,white
1,bas,stp,1,DMCC8760894,bas_stp_run1_DMCC8760894,YELLOW,Con,PC50,yellow,2400,364364,67248,50,yellow,yellow,yellow,yellow,1,610,yellowYELLOW,297.116,364974,907.116,1,28.414,231.214,434.014,202.829,405.629,608.43,PC50Con,yellow
1,bas,stp,1,DMCC8760894,bas_stp_run1_DMCC8760894,GREEN,Con,PC50,green,2400,369164,67248,51,green,green,green,green,1,731.5,greenGREEN,301.916,369895.5,1033.416,1,28.414,231.214,434.014,202.829,405.629,608.43,PC50Con,green
1,bas,stp,1,DMCC8760894,bas_stp_run1_DMCC8760894,BLUE,Con,bias,blue,1200,373964,67248,52,blue,blue,blue,blue,1,657,blueBLUE,306.716,374621,963.716,1,28.414,231.214,434.014,202.829,405.629,608.43,biasCon,blue
1,bas,stp,1,DMCC8760894,bas_stp_run1_DMCC8760894,WHITE,InCon,bias,blue,3600,377564,67248,53,blue,blue,blue,blue,1,697.5,blueWHITE,310.316,378261.5,1007.816,1,28.414,231.214,434.014,202.829,405.629,608.43,biasInCon,blue
1,bas,stp,1,DMCC8760894,bas_stp_run1_DMCC8760894,BLUE,Con,bias,blue,1200,383563,67248,54,blue,blue,blue,blue,1,694.5,blueBLUE,316.315,384257.5,1010.815,1,28.414,231.214,434.014,202.829,405.629,608.43,biasCon,blue
1,bas,stp,1,DMCC8760894,bas_stp_run1_DMCC8760894,WHITE,Con,bias,white,1200,387163,67248,55,white,white,white,white,1,694.5,whiteWHITE,319.915,387857.5,1014.415,1,28.414,231.214,434.014,202.829,405.629,608.43,biasCon,white
1,bas,stp,1,DMCC8760894,bas_stp_run1_DMCC8760894,PURPLE,Con,bias,purple,2400,390763,67248,56,purple,purple,purple,purple,1,651,purplePURPLE,323.515,391414,974.515,1,28.414,231.214,434.014,202.829,405.629,608.43,biasCon,purple
1,bas,stp,1,DMCC8760894,bas_stp_run1_DMCC8760894,PURPLE,InCon,bias,red,3600,395562,67248,57,"purple-spoke """"""""pur-red""""""""",purple,red,purple,0,639,redPURPLE,328.314,396201,967.314,0,28.414,231.214,434.014,202.829,405.629,608.43,biasInCon,purple
1,bas,stp,1,DMCC8760894,bas_stp_run1_DMCC8760894,PURPLE,Con,bias,purple,3600,401562,67248,58,purple,purple,purple,purple,1,710,purplePURPLE,334.314,402272,1044.314,1,28.414,231.214,434.014,202.829,405.629,608.43,biasCon,purple
1,bas,stp,1,DMCC8760894,bas_stp_run1_DMCC8760894,BLUE,Con,bias,blue,1200,407562,67248,59,blue,blue,blue,blue,1,730,blueBLUE,340.314,408292,1070.314,1,28.414,231.214,434.014,202.829,405.629,608.43,biasCon,blue
1,bas,stp,1,DMCC8760894,bas_stp_run1_DMCC8760894,BLUE,InCon,bias,purple,2400,411161,67248,60,purple,purple,purple,purple,1,870.5,purpleBLUE,343.913,412031.5,1214.413,1,28.414,231.214,434.014,202.829,405.629,608.43,biasInCon,purple
1,bas,stp,1,DMCC8760894,bas_stp_run1_DMCC8760894,PURPLE,InCon,bias,white,3600,415961,67248,61,white,white,white,white,1,926,whitePURPLE,348.713,416887,1274.713,1,28.414,231.214,434.014,202.829,405.629,608.43,biasInCon,white
1,bas,stp,1,DMCC8760894,bas_stp_run1_DMCC8760894,GREEN,InCon,PC50,yellow,2400,421961,67248,62,yellow,yellow,yellow,yellow,1,779,yellowGREEN,354.713,422740,1133.713,1,28.414,231.214,434.014,202.829,405.629,608.43,PC50InCon,yellow
1,bas,stp,1,DMCC8760894,bas_stp_run1_DMCC8760894,WHITE,Con,bias,white,2400,426760,67248,63,white,white,white,white,1,672,whiteWHITE,359.512,427432,1031.512,1,28.414,231.214,434.014,202.829,405.629,608.43,biasCon,white
1,bas,stp,1,DMCC8760894,bas_stp_run1_DMCC8760894,BLACK,InCon,PC50,green,3600,431560,67248,64,green,green,green,green,1,789.5,greenBLACK,364.312,432349.5,1153.812,1,28.414,231.214,434.014,202.829,405.629,608.43,PC50InCon,green
1,bas,stp,1,DMCC8760894,bas_stp_run1_DMCC8760894,PURPLE,Con,bias,purple,2400,437560,67248,65,purple,purple,purple,purple,1,664.5,purplePURPLE,370.312,438224.5,1034.812,1,28.414,231.214,434.014,202.829,405.629,608.43,biasCon,purple
1,bas,stp,1,DMCC8760894,bas_stp_run1_DMCC8760894,WHITE,Con,bias,white,1200,442359,67248,66,white,white,white,white,1,682.5,whiteWHITE,375.111,443041.5,1057.611,1,28.414,231.214,434.014,202.829,405.629,608.43,biasCon,white
1,bas,stp,1,DMCC8760894,bas_stp_run1_DMCC8760894,BLACK,Con,PC50,black,2400,445959,67248,67,black,black,black,black,1,667,blackBLACK,378.711,446626,1045.711,1,28.414,231.214,434.014,202.829,405.629,608.43,PC50Con,black
1,bas,stp,1,DMCC8760894,bas_stp_run1_DMCC8760894,RED,Con,bias,red,3600,450759,67248,68,red,red,red,red,1,757,redRED,383.511,451516,1140.511,1,28.414,231.214,434.014,202.829,405.629,608.43,biasCon,red
1,bas,stp,1,DMCC8760894,bas_stp_run1_DMCC8760894,BLUE,Con,bias,blue,1200,456759,67248,69,blue,blue,blue,blue,1,708.5,blueBLUE,389.511,457467.5,1098.011,1,28.414,231.214,434.014,202.829,405.629,608.43,biasCon,blue
1,bas,stp,1,DMCC8760894,bas_stp_run1_DMCC8760894,YELLOW,Con,PC50,yellow,3600,460358,67248,70,yellow,yellow,yellow,yellow,1,649,yellowYELLOW,393.11,461007,1042.11,1,28.414,231.214,434.014,202.829,405.629,608.43,PC50Con,yellow
1,bas,stp,1,DMCC8760894,bas_stp_run1_DMCC8760894,PINK,Con,PC50,pink,1200,466358,67248,71,pink,pink,pink,pink,1,853.5,pinkPINK,399.11,467211.5,1252.61,1,28.414,231.214,434.014,202.829,405.629,608.43,PC50Con,pink
1,bas,stp,1,DMCC8760894,bas_stp_run1_DMCC8760894,RED,Con,bias,red,1200,469958,67248,72,red,red,red,red,1,791.5,redRED,402.71,470749.5,1194.21,1,28.414,231.214,434.014,202.829,405.629,608.43,biasCon,red
1,bas,stp,1,DMCC8760894,bas_stp_run1_DMCC8760894,RED,Con,bias,red,1200,503555,67248,73,red,red,red,red,1,678.5,redRED,436.307,504233.5,1114.807,1,28.414,231.214,434.014,202.829,405.629,608.43,biasCon,red
1,bas,stp,1,DMCC8760894,bas_stp_run1_DMCC8760894,BLUE,InCon,bias,purple,2400,507155,67248,74,purple,purple,purple,purple,1,756.5,purpleBLUE,439.907,507911.5,1196.407,1,28.414,231.214,434.014,202.829,405.629,608.43,biasInCon,purple
1,bas,stp,1,DMCC8760894,bas_stp_run1_DMCC8760894,WHITE,Con,bias,white,1200,511955,67248,75,white,white,white,white,1,588.5,whiteWHITE,444.707,512543.5,1033.207,1,28.414,231.214,434.014,202.829,405.629,608.43,biasCon,white
1,bas,stp,1,DMCC8760894,bas_stp_run1_DMCC8760894,BLUE,Con,bias,blue,2400,515555,67248,76,blue,blue,blue,blue,1,593,blueBLUE,448.307,516148,1041.307,1,28.414,231.214,434.014,202.829,405.629,608.43,biasCon,blue
1,bas,stp,1,DMCC8760894,bas_stp_run1_DMCC8760894,PURPLE,Con,bias,purple,3600,520354,67248,77,purple,purple,purple,purple,1,531,purplePURPLE,453.106,520885,984.106,1,28.414,231.214,434.014,202.829,405.629,608.43,biasCon,purple
1,bas,stp,1,DMCC8760894,bas_stp_run1_DMCC8760894,GREEN,InCon,PC50,pink,3600,526354,67248,78,pink,pink,pink,pink,1,706,pinkGREEN,459.106,527060,1165.106,1,28.414,231.214,434.014,202.829,405.629,608.43,PC50InCon,pink
1,bas,stp,1,DMCC8760894,bas_stp_run1_DMCC8760894,WHITE,Con,bias,white,2400,532354,67248,79,white,white,white,white,1,695.5,whiteWHITE,465.106,533049.5,1160.606,1,28.414,231.214,434.014,202.829,405.629,608.43,biasCon,white
1,bas,stp,1,DMCC8760894,bas_stp_run1_DMCC8760894,YELLOW,InCon,PC50,pink,1200,537153,67248,80,pink,pink,pink,pink,1,761.5,pinkYELLOW,469.905,537914.5,1231.405,1,28.414,231.214,434.014,202.829,405.629,608.43,PC50InCon,pink
1,bas,stp,1,DMCC8760894,bas_stp_run1_DMCC8760894,YELLOW,InCon,PC50,black,3600,540753,67248,81,black,black,black,black,1,695.5,blackYELLOW,473.505,541448.5,1169.005,1,28.414,231.214,434.014,202.829,405.629,608.43,PC50InCon,black
1,bas,stp,1,DMCC8760894,bas_stp_run1_DMCC8760894,PURPLE,InCon,bias,white,1200,546753,67248,82,white,white,white,white,1,670,whitePURPLE,479.505,547423,1149.505,1,28.414,231.214,434.014,202.829,405.629,608.43,biasInCon,white
1,bas,stp,1,DMCC8760894,bas_stp_run1_DMCC8760894,RED,Con,bias,red,2400,550366,67248,83,red,red,red,red,1,687.5,redRED,483.118,551053.5,1170.618,1,28.414,231.214,434.014,202.829,405.629,608.43,biasCon,red
1,bas,stp,1,DMCC8760894,bas_stp_run1_DMCC8760894,WHITE,Con,bias,white,3600,555166,67248,84,white,white,white,white,1,693,whiteWHITE,487.918,555859,1180.918,1,28.414,231.214,434.014,202.829,405.629,608.43,biasCon,white
1,bas,stp,1,DMCC8760894,bas_stp_run1_DMCC8760894,PINK,Con,PC50,pink,3600,561165,67248,85,pink,pink,pink,pink,1,676.5,pinkPINK,493.917,561841.5,1170.417,1,28.414,231.214,434.014,202.829,405.629,608.43,PC50Con,pink
1,bas,stp,1,DMCC8760894,bas_stp_run1_DMCC8760894,PINK,InCon,PC50,black,3600,567165,67248,86,black,black,black,black,1,671,blackPINK,499.917,567836,1170.917,1,28.414,231.214,434.014,202.829,405.629,608.43,PC50InCon,black
1,bas,stp,1,DMCC8760894,bas_stp_run1_DMCC8760894,BLUE,InCon,bias,red,1200,573164,67248,87,red,red,red,red,1,757,redBLUE,505.916,573921,1262.916,1,28.414,231.214,434.014,202.829,405.629,608.43,biasInCon,red
1,bas,stp,1,DMCC8760894,bas_stp_run1_DMCC8760894,RED,InCon,bias,white,3600,576764,67248,88,white,white,white,white,1,759.5,whiteRED,509.516,577523.5,1269.016,1,28.414,231.214,434.014,202.829,405.629,608.43,biasInCon,white
1,bas,stp,1,DMCC8760894,bas_stp_run1_DMCC8760894,GREEN,Con,PC50,green,2400,582764,67248,89,green,green,green,green,1,731.5,greenGREEN,515.516,583495.5,1247.016,1,28.414,231.214,434.014,202.829,405.629,608.43,PC50Con,green
1,bas,stp,1,DMCC8760894,bas_stp_run1_DMCC8760894,BLACK,InCon,PC50,green,1200,587563,67248,90,green,green,green,green,1,701.5,greenBLACK,520.315,588264.5,1221.815,1,28.414,231.214,434.014,202.829,405.629,608.43,PC50InCon,green
1,bas,stp,1,DMCC8760894,bas_stp_run1_DMCC8760894,YELLOW,Con,PC50,yellow,3600,591163,67248,91,yellow,yellow,yellow,yellow,1,653,yellowYELLOW,523.915,591816,1176.915,1,28.414,231.214,434.014,202.829,405.629,608.43,PC50Con,yellow
1,bas,stp,1,DMCC8760894,bas_stp_run1_DMCC8760894,RED,Con,bias,red,1200,597163,67248,92,red,red,red,red,1,710.5,redRED,529.915,597873.5,1240.415,1,28.414,231.214,434.014,202.829,405.629,608.43,biasCon,red
1,bas,stp,1,DMCC8760894,bas_stp_run1_DMCC8760894,BLUE,Con,bias,blue,2400,600763,67248,93,blue,blue,blue,blue,1,807,blueBLUE,533.515,601570,1340.515,1,28.414,231.214,434.014,202.829,405.629,608.43,biasCon,blue
1,bas,stp,1,DMCC8760894,bas_stp_run1_DMCC8760894,YELLOW,Con,PC50,yellow,1200,605562,67248,94,yellow,yellow,yellow,yellow,1,872.5,yellowYELLOW,538.314,606434.5,1410.814,1,28.414,231.214,434.014,202.829,405.629,608.43,PC50Con,yellow
1,bas,stp,1,DMCC8760894,bas_stp_run1_DMCC8760894,WHITE,Con,bias,white,2400,609162,67248,95,white,white,white,white,1,798.5,whiteWHITE,541.914,609960.5,1340.414,1,28.414,231.214,434.014,202.829,405.629,608.43,biasCon,white
1,bas,stp,1,DMCC8760894,bas_stp_run1_DMCC8760894,PURPLE,Con,bias,purple,2400,613962,67248,96,purple,purple,purple,purple,1,732.5,purplePURPLE,546.714,614694.5,1279.214,1,28.414,231.214,434.014,202.829,405.629,608.43,biasCon,purple
1,bas,stp,1,DMCC8760894,bas_stp_run1_DMCC8760894,BLACK,Con,PC50,black,3600,618761,67248,97,black,black,black,black,1,942.5,blackBLACK,551.513,619703.5,1494.013,1,28.414,231.214,434.014,202.829,405.629,608.43,PC50Con,black
1,bas,stp,1,DMCC8760894,bas_stp_run1_DMCC8760894,PURPLE,InCon,bias,red,3600,624761,67248,98,red,red,red,red,1,935,redPURPLE,557.513,625696,1492.513,1,28.414,231.214,434.014,202.829,405.629,608.43,biasInCon,red
1,bas,stp,1,DMCC8760894,bas_stp_run1_DMCC8760894,GREEN,Con,PC50,green,2400,630761,67248,99,green,green,green,green,1,775.5,greenGREEN,563.513,631536.5,1339.013,1,28.414,231.214,434.014,202.829,405.629,608.43,PC50Con,green
1,bas,stp,1,DMCC8760894,bas_stp_run1_DMCC8760894,GREEN,InCon,PC50,yellow,2400,635560,67248,100,yellow,yellow,yellow,yellow,1,774,yellowGREEN,568.312,636334,1342.312,1,28.414,231.214,434.014,202.829,405.629,608.43,PC50InCon,yellow
1,bas,stp,1,DMCC8760894,bas_stp_run1_DMCC8760894,RED,Con,bias,red,3600,640360,67248,101,red,red,red,red,1,689,redRED,573.112,641049,1262.112,1,28.414,231.214,434.014,202.829,405.629,608.43,biasCon,red
1,bas,stp,1,DMCC8760894,bas_stp_run1_DMCC8760894,BLUE,Con,bias,blue,2400,646360,67248,102,blue,blue,blue,blue,1,727.5,blueBLUE,579.112,647087.5,1306.612,1,28.414,231.214,434.014,202.829,405.629,608.43,biasCon,blue
1,bas,stp,1,DMCC8760894,bas_stp_run1_DMCC8760894,PURPLE,Con,bias,purple,1200,651159,67248,103,purple,purple,purple,purple,1,834.5,purplePURPLE,583.911,651993.5,1418.411,1,28.414,231.214,434.014,202.829,405.629,608.43,biasCon,purple
1,bas,stp,1,DMCC8760894,bas_stp_run1_DMCC8760894,BLUE,Con,bias,blue,1200,654759,67248,104,blue,blue,blue,blue,1,856.5,blueBLUE,587.511,655615.5,1444.011,1,28.414,231.214,434.014,202.829,405.629,608.43,biasCon,blue
1,bas,stp,1,DMCC8760894,bas_stp_run1_DMCC8760894,BLUE,Con,bias,blue,1200,658359,67248,105,blue,blue,blue,blue,1,754,blueBLUE,591.111,659113,1345.111,1,28.414,231.214,434.014,202.829,405.629,608.43,biasCon,blue
1,bas,stp,1,DMCC8760894,bas_stp_run1_DMCC8760894,PURPLE,Con,bias,purple,3600,661959,67248,106,purple,purple,purple,purple,1,805.5,purplePURPLE,594.711,662764.5,1400.211,1,28.414,231.214,434.014,202.829,405.629,608.43,biasCon,purple
1,bas,stp,1,DMCC8760894,bas_stp_run1_DMCC8760894,PURPLE,Con,bias,purple,1200,667958,67248,107,purple,purple,purple,purple,1,579,purplePURPLE,600.71,668537,1179.71,1,28.414,231.214,434.014,202.829,405.629,608.43,biasCon,purple
1,bas,stp,1,DMCC8760894,bas_stp_run1_DMCC8760894,WHITE,InCon,bias,blue,2400,671558,67248,108,blue,blue,blue,blue,1,896,blueWHITE,604.31,672454,1500.31,1,28.414,231.214,434.014,202.829,405.629,608.43,biasInCon,blue
1,bas,stp,2,DMCC8760894,bas_stp_run2_DMCC8760894,PURPLE,Con,bias,purple,3600,81818,51108,1,purple,purple,purple,purple,1,688,purplePURPLE,30.71,82506,718.71,1,28.417,231.217,434.018,202.832,405.633,608.42,biasCon,purple
1,bas,stp,2,DMCC8760894,bas_stp_run2_DMCC8760894,RED,Con,bias,red,1200,87818,51108,2,red,red,red,red,1,626,redRED,36.71,88444,662.71,1,28.417,231.217,434.018,202.832,405.633,608.42,biasCon,red
1,bas,stp,2,DMCC8760894,bas_stp_run2_DMCC8760894,RED,Con,bias,red,2400,91418,51108,3,red,red,red,red,1,577,redRED,40.31,91995,617.31,1,28.417,231.217,434.018,202.832,405.633,608.42,biasCon,red
1,bas,stp,2,DMCC8760894,bas_stp_run2_DMCC8760894,GREEN,InCon,PC50,black,3600,96217,51108,4,black,black,black,black,1,785,blackGREEN,45.109,97002,830.109,1,28.417,231.217,434.018,202.832,405.633,608.42,PC50InCon,black
1,bas,stp,2,DMCC8760894,bas_stp_run2_DMCC8760894,RED,InCon,bias,blue,2400,102217,51108,5,blue,blue,blue,blue,1,741.5,blueRED,51.109,102958.5,792.609,1,28.417,231.217,434.018,202.832,405.633,608.42,biasInCon,blue
1,bas,stp,2,DMCC8760894,bas_stp_run2_DMCC8760894,BLUE,InCon,bias,white,1200,107017,51108,6,white,white,white,white,1,708.5,whiteBLUE,55.909,107725.5,764.409,1,28.417,231.217,434.018,202.832,405.633,608.42,biasInCon,white
1,bas,stp,2,DMCC8760894,bas_stp_run2_DMCC8760894,WHITE,Con,bias,white,3600,110616,51108,7,white,white,white,white,1,766.5,whiteWHITE,59.508,111382.5,826.008,1,28.417,231.217,434.018,202.832,405.633,608.42,biasCon,white
1,bas,stp,2,DMCC8760894,bas_stp_run2_DMCC8760894,BLUE,Con,bias,blue,1200,116616,51108,8,blue,blue,blue,blue,1,676,blueBLUE,65.508,117292,741.508,1,28.417,231.217,434.018,202.832,405.633,608.42,biasCon,blue
1,bas,stp,2,DMCC8760894,bas_stp_run2_DMCC8760894,BLUE,Con,bias,blue,1200,120216,51108,9,blue,blue,blue,blue,1,635,blueBLUE,69.108,120851,704.108,1,28.417,231.217,434.018,202.832,405.633,608.42,biasCon,blue
1,bas,stp,2,DMCC8760894,bas_stp_run2_DMCC8760894,PURPLE,Con,bias,purple,2400,123815,51108,10,purple,purple,purple,purple,1,609.5,purplePURPLE,72.707,124424.5,682.207,1,28.417,231.217,434.018,202.832,405.633,608.42,biasCon,purple
1,bas,stp,2,DMCC8760894,bas_stp_run2_DMCC8760894,BLACK,Con,PC50,black,2400,128615,51108,11,black,black,black,black,1,560.5,blackBLACK,77.507,129175.5,638.007,1,28.417,231.217,434.018,202.832,405.633,608.42,PC50Con,black
1,bas,stp,2,DMCC8760894,bas_stp_run2_DMCC8760894,RED,Con,bias,red,3600,133415,51108,12,red,red,red,red,1,693.5,redRED,82.307,134108.5,775.807,1,28.417,231.217,434.018,202.832,405.633,608.42,biasCon,red
1,bas,stp,2,DMCC8760894,bas_stp_run2_DMCC8760894,WHITE,Con,bias,white,2400,139414,51108,13,white,white,white,white,1,685,whiteWHITE,88.306,140099,773.306,1,28.417,231.217,434.018,202.832,405.633,608.42,biasCon,white
1,bas,stp,2,DMCC8760894,bas_stp_run2_DMCC8760894,BLACK,Con,PC50,black,3600,144214,51108,14,black,black,black,black,1,681,blackBLACK,93.106,144895,774.106,1,28.417,231.217,434.018,202.832,405.633,608.42,PC50Con,black
1,bas,stp,2,DMCC8760894,bas_stp_run2_DMCC8760894,WHITE,Con,bias,white,1200,150214,51108,15,white,white,white,white,1,706,whiteWHITE,99.106,150920,805.106,1,28.417,231.217,434.018,202.832,405.633,608.42,biasCon,white
1,bas,stp,2,DMCC8760894,bas_stp_run2_DMCC8760894,PURPLE,Con,bias,purple,3600,153814,51108,16,purple,purple,purple,purple,1,752,purplePURPLE,102.706,154566,854.706,1,28.417,231.217,434.018,202.832,405.633,608.42,biasCon,purple
1,bas,stp,2,DMCC8760894,bas_stp_run2_DMCC8760894,BLUE,Con,bias,blue,1200,159813,51108,17,blue,blue,blue,blue,1,721.5,blueBLUE,108.705,160534.5,830.205,1,28.417,231.217,434.018,202.832,405.633,608.42,biasCon,blue
1,bas,stp,2,DMCC8760894,bas_stp_run2_DMCC8760894,WHITE,Con,bias,white,2400,163413,51108,18,white,white,white,white,1,752.5,whiteWHITE,112.305,164165.5,864.805,1,28.417,231.217,434.018,202.832,405.633,608.42,biasCon,white
1,bas,stp,2,DMCC8760894,bas_stp_run2_DMCC8760894,PINK,InCon,PC50,yellow,3600,168213,51108,19,yellow,yellow,yellow,yellow,1,800,yellowPINK,117.105,169013,917.105,1,28.417,231.217,434.018,202.832,405.633,608.42,PC50InCon,yellow
1,bas,stp,2,DMCC8760894,bas_stp_run2_DMCC8760894,PINK,Con,PC50,pink,1200,174212,51108,20,pink,pink,pink,pink,1,756,pinkPINK,123.104,174968,879.104,1,28.417,231.217,434.018,202.832,405.633,608.42,PC50Con,pink
1,bas,stp,2,DMCC8760894,bas_stp_run2_DMCC8760894,RED,Con,bias,red,3600,177812,51108,21,red,red,red,red,1,768.5,redRED,126.704,178580.5,895.204,1,28.417,231.217,434.018,202.832,405.633,608.42,biasCon,red
1,bas,stp,2,DMCC8760894,bas_stp_run2_DMCC8760894,WHITE,Con,bias,white,2400,183812,51108,22,white,white,white,white,1,779,whiteWHITE,132.704,184591,911.704,1,28.417,231.217,434.018,202.832,405.633,608.42,biasCon,white
1,bas,stp,2,DMCC8760894,bas_stp_run2_DMCC8760894,WHITE,InCon,bias,red,1200,188625,51108,23,red,red,red,red,1,727.5,redWHITE,137.517,189352.5,865.017,1,28.417,231.217,434.018,202.832,405.633,608.42,biasInCon,red
1,bas,stp,2,DMCC8760894,bas_stp_run2_DMCC8760894,PINK,Con,PC50,pink,2400,192224,51108,24,pink,pink,pink,pink,1,717,pinkPINK,141.116,192941,858.116,1,28.417,231.217,434.018,202.832,405.633,608.42,PC50Con,pink
1,bas,stp,2,DMCC8760894,bas_stp_run2_DMCC8760894,RED,InCon,bias,purple,2400,197024,51108,25,purple,purple,purple,purple,1,803,purpleRED,145.916,197827,948.916,1,28.417,231.217,434.018,202.832,405.633,608.42,biasInCon,purple
1,bas,stp,2,DMCC8760894,bas_stp_run2_DMCC8760894,PINK,InCon,PC50,green,3600,201824,51108,26,green,green,green,green,1,747.5,greenPINK,150.716,202571.5,898.216,1,28.417,231.217,434.018,202.832,405.633,608.42,PC50InCon,green
1,bas,stp,2,DMCC8760894,bas_stp_run2_DMCC8760894,BLUE,Con,bias,blue,2400,207823,51108,27,blue,blue,blue,blue,1,726.5,blueBLUE,156.715,208549.5,883.215,1,28.417,231.217,434.018,202.832,405.633,608.42,biasCon,blue
1,bas,stp,2,DMCC8760894,bas_stp_run2_DMCC8760894,BLACK,InCon,PC50,yellow,3600,212623,51108,28,yellow,yellow,yellow,yellow,1,859.5,yellowBLACK,161.515,213482.5,1021.015,1,28.417,231.217,434.018,202.832,405.633,608.42,PC50InCon,yellow
1,bas,stp,2,DMCC8760894,bas_stp_run2_DMCC8760894,RED,Con,bias,red,1200,218623,51108,29,red,red,red,red,1,773.5,redRED,167.515,219396.5,941.015,1,28.417,231.217,434.018,202.832,405.633,608.42,biasCon,red
1,bas,stp,2,DMCC8760894,bas_stp_run2_DMCC8760894,PURPLE,Con,bias,purple,3600,222222,51108,30,purple,purple,purple,purple,1,1095.5,purplePURPLE,171.114,223317.5,1266.614,1,28.417,231.217,434.018,202.832,405.633,608.42,biasCon,purple
1,bas,stp,2,DMCC8760894,bas_stp_run2_DMCC8760894,GREEN,Con,PC50,green,1200,228222,51108,31,green,green,green,green,1,785,greenGREEN,177.114,229007,962.114,1,28.417,231.217,434.018,202.832,405.633,608.42,PC50Con,green
1,bas,stp,2,DMCC8760894,bas_stp_run2_DMCC8760894,WHITE,InCon,bias,purple,1200,231822,51108,32,purple,purple,purple,purple,1,738,purpleWHITE,180.714,232560,918.714,1,28.417,231.217,434.018,202.832,405.633,608.42,biasInCon,purple
1,bas,stp,2,DMCC8760894,bas_stp_run2_DMCC8760894,YELLOW,InCon,PC50,green,3600,235422,51108,33,green,green,green,green,1,832.5,greenYELLOW,184.314,236254.5,1016.814,1,28.417,231.217,434.018,202.832,405.633,608.42,PC50InCon,green
1,bas,stp,2,DMCC8760894,bas_stp_run2_DMCC8760894,YELLOW,Con,PC50,yellow,2400,241421,51108,34,yellow,yellow,yellow,yellow,1,771,yellowYELLOW,190.313,242192,961.313,1,28.417,231.217,434.018,202.832,405.633,608.42,PC50Con,yellow
1,bas,stp,2,DMCC8760894,bas_stp_run2_DMCC8760894,BLACK,InCon,PC50,pink,2400,246221,51108,35,pink,pink,pink,pink,1,828,pinkBLACK,195.113,247049,1023.113,1,28.417,231.217,434.018,202.832,405.633,608.42,PC50InCon,pink
1,bas,stp,2,DMCC8760894,bas_stp_run2_DMCC8760894,PURPLE,InCon,bias,blue,1200,251021,51108,36,blue,blue,blue,blue,1,761,bluePURPLE,199.913,251782,960.913,1,28.417,231.217,434.018,202.832,405.633,608.42,biasInCon,blue
1,bas,stp,2,DMCC8760894,bas_stp_run2_DMCC8760894,BLUE,Con,bias,blue,2400,284618,51108,37,blue,blue,blue,blue,1,804,blueBLUE,233.51,285422,1037.51,1,28.417,231.217,434.018,202.832,405.633,608.42,biasCon,blue
1,bas,stp,2,DMCC8760894,bas_stp_run2_DMCC8760894,RED,Con,bias,red,3600,289418,51108,38,red,red,red,red,1,655.5,redRED,238.31,290073.5,893.81,1,28.417,231.217,434.018,202.832,405.633,608.42,biasCon,red
1,bas,stp,2,DMCC8760894,bas_stp_run2_DMCC8760894,YELLOW,Con,PC50,yellow,3600,295418,51108,39,yellow,yellow,yellow,yellow,1,698,yellowYELLOW,244.31,296116,942.31,1,28.417,231.217,434.018,202.832,405.633,608.42,PC50Con,yellow
1,bas,stp,2,DMCC8760894,bas_stp_run2_DMCC8760894,WHITE,InCon,bias,red,2400,301417,51108,40,red,red,red,red,1,779,redWHITE,250.309,302196,1029.309,1,28.417,231.217,434.018,202.832,405.633,608.42,biasInCon,red
1,bas,stp,2,DMCC8760894,bas_stp_run2_DMCC8760894,BLACK,Con,PC50,black,1200,306217,51108,41,black,black,black,black,1,672.5,blackBLACK,255.109,306889.5,927.609,1,28.417,231.217,434.018,202.832,405.633,608.42,PC50Con,black
1,bas,stp,2,DMCC8760894,bas_stp_run2_DMCC8760894,RED,Con,bias,red,3600,309817,51108,42,red,red,red,red,1,678.5,redRED,258.709,310495.5,937.209,1,28.417,231.217,434.018,202.832,405.633,608.42,biasCon,red
1,bas,stp,2,DMCC8760894,bas_stp_run2_DMCC8760894,BLACK,InCon,PC50,yellow,1200,315816,51108,43,yellow,yellow,yellow,yellow,1,789.5,yellowBLACK,264.708,316605.5,1054.208,1,28.417,231.217,434.018,202.832,405.633,608.42,PC50InCon,yellow
1,bas,stp,2,DMCC8760894,bas_stp_run2_DMCC8760894,BLACK,InCon,PC50,pink,2400,319416,51108,44,pink,pink,pink,pink,1,687,pinkBLACK,268.308,320103,955.308,1,28.417,231.217,434.018,202.832,405.633,608.42,PC50InCon,pink
1,bas,stp,2,DMCC8760894,bas_stp_run2_DMCC8760894,RED,InCon,bias,purple,1200,324216,51108,45,purple,purple,purple,purple,1,699.5,purpleRED,273.108,324915.5,972.608,1,28.417,231.217,434.018,202.832,405.633,608.42,biasInCon,purple
1,bas,stp,2,DMCC8760894,bas_stp_run2_DMCC8760894,WHITE,Con,bias,white,2400,327816,51108,46,white,white,white,white,1,731,whiteWHITE,276.708,328547,1007.708,1,28.417,231.217,434.018,202.832,405.633,608.42,biasCon,white
1,bas,stp,2,DMCC8760894,bas_stp_run2_DMCC8760894,PURPLE,InCon,bias,blue,3600,332615,51108,47,blue,blue,blue,blue,1,768,bluePURPLE,281.507,333383,1049.507,1,28.417,231.217,434.018,202.832,405.633,608.42,biasInCon,blue
1,bas,stp,2,DMCC8760894,bas_stp_run2_DMCC8760894,BLUE,Con,bias,blue,1200,338615,51108,48,blue,blue,blue,blue,1,920,blueBLUE,287.507,339535,1207.507,1,28.417,231.217,434.018,202.832,405.633,608.42,biasCon,blue
1,bas,stp,2,DMCC8760894,bas_stp_run2_DMCC8760894,RED,Con,bias,red,1200,342215,51108,49,red,red,red,red,1,1086,redRED,291.107,343301,1377.107,1,28.417,231.217,434.018,202.832,405.633,608.42,biasCon,red
1,bas,stp,2,DMCC8760894,bas_stp_run2_DMCC8760894,RED,Con,bias,red,3600,345814,51108,50,red,red,red,red,1,815.5,redRED,294.706,346629.5,1110.206,1,28.417,231.217,434.018,202.832,405.633,608.42,biasCon,red
1,bas,stp,2,DMCC8760894,bas_stp_run2_DMCC8760894,BLUE,Con,bias,blue,1200,351814,51108,51,blue,blue,blue,blue,1,853,blueBLUE,300.706,352667,1153.706,1,28.417,231.217,434.018,202.832,405.633,608.42,biasCon,blue
1,bas,stp,2,DMCC8760894,bas_stp_run2_DMCC8760894,YELLOW,InCon,PC50,green,1200,355414,51108,52,green,green,green,green,1,823,greenYELLOW,304.306,356237,1127.306,1,28.417,231.217,434.018,202.832,405.633,608.42,PC50InCon,green
1,bas,stp,2,DMCC8760894,bas_stp_run2_DMCC8760894,GREEN,Con,PC50,green,1200,359014,51108,53,green,green,green,green,1,893.5,greenGREEN,307.906,359907.5,1201.406,1,28.417,231.217,434.018,202.832,405.633,608.42,PC50Con,green
1,bas,stp,2,DMCC8760894,bas_stp_run2_DMCC8760894,PURPLE,Con,bias,purple,3600,362613,51108,54,purple,purple,purple,purple,1,710.5,purplePURPLE,311.505,363323.5,1022.005,1,28.417,231.217,434.018,202.832,405.633,608.42,biasCon,purple
1,bas,stp,2,DMCC8760894,bas_stp_run2_DMCC8760894,WHITE,Con,bias,white,3600,368613,51108,55,white,white,white,white,1,766.5,whiteWHITE,317.505,369379.5,1084.005,1,28.417,231.217,434.018,202.832,405.633,608.42,biasCon,white
1,bas,stp,2,DMCC8760894,bas_stp_run2_DMCC8760894,PINK,Con,PC50,pink,2400,374613,51108,56,pink,pink,pink,pink,1,778,pinkPINK,323.505,375391,1101.505,1,28.417,231.217,434.018,202.832,405.633,608.42,PC50Con,pink
1,bas,stp,2,DMCC8760894,bas_stp_run2_DMCC8760894,GREEN,InCon,PC50,black,2400,379412,51108,57,black,black,black,black,1,765.5,blackGREEN,328.304,380177.5,1093.804,1,28.417,231.217,434.018,202.832,405.633,608.42,PC50InCon,black
1,bas,stp,2,DMCC8760894,bas_stp_run2_DMCC8760894,RED,InCon,bias,blue,2400,384212,51108,58,blue,blue,blue,blue,1,700.5,blueRED,333.104,384912.5,1033.604,1,28.417,231.217,434.018,202.832,405.633,608.42,biasInCon,blue
1,bas,stp,2,DMCC8760894,bas_stp_run2_DMCC8760894,WHITE,Con,bias,white,3600,389012,51108,59,white,white,white,white,1,607.5,whiteWHITE,337.904,389619.5,945.404,1,28.417,231.217,434.018,202.832,405.633,608.42,biasCon,white
1,bas,stp,2,DMCC8760894,bas_stp_run2_DMCC8760894,PURPLE,Con,bias,purple,2400,395025,51108,60,purple,purple,purple,purple,1,840,purplePURPLE,343.917,395865,1183.917,1,28.417,231.217,434.018,202.832,405.633,608.42,biasCon,purple
1,bas,stp,2,DMCC8760894,bas_stp_run2_DMCC8760894,PINK,InCon,PC50,yellow,3600,399824,51108,61,yellow,yellow,yellow,yellow,1,778.5,yellowPINK,348.716,400602.5,1127.216,1,28.417,231.217,434.018,202.832,405.633,608.42,PC50InCon,yellow
1,bas,stp,2,DMCC8760894,bas_stp_run2_DMCC8760894,BLUE,InCon,bias,white,1200,405824,51108,62,white,white,white,white,1,810.5,whiteBLUE,354.716,406634.5,1165.216,1,28.417,231.217,434.018,202.832,405.633,608.42,biasInCon,white
1,bas,stp,2,DMCC8760894,bas_stp_run2_DMCC8760894,RED,Con,bias,red,1200,409424,51108,63,red,red,red,red,1,838.5,redRED,358.316,410262.5,1196.816,1,28.417,231.217,434.018,202.832,405.633,608.42,biasCon,red
1,bas,stp,2,DMCC8760894,bas_stp_run2_DMCC8760894,PINK,Con,PC50,pink,2400,413024,51108,64,pink,pink,pink,pink,1,652,pinkPINK,361.916,413676,1013.916,1,28.417,231.217,434.018,202.832,405.633,608.42,PC50Con,pink
1,bas,stp,2,DMCC8760894,bas_stp_run2_DMCC8760894,WHITE,Con,bias,white,2400,417823,51108,65,white,white,white,white,1,723,whiteWHITE,366.715,418546,1089.715,1,28.417,231.217,434.018,202.832,405.633,608.42,biasCon,white
1,bas,stp,2,DMCC8760894,bas_stp_run2_DMCC8760894,PINK,InCon,PC50,green,3600,422623,51108,66,green,green,green,green,1,778,greenPINK,371.515,423401,1149.515,1,28.417,231.217,434.018,202.832,405.633,608.42,PC50InCon,green
1,bas,stp,2,DMCC8760894,bas_stp_run2_DMCC8760894,WHITE,Con,bias,white,3600,428623,51108,67,white,white,white,white,1,619.5,whiteWHITE,377.515,429242.5,997.015,1,28.417,231.217,434.018,202.832,405.633,608.42,biasCon,white
1,bas,stp,2,DMCC8760894,bas_stp_run2_DMCC8760894,WHITE,InCon,bias,purple,1200,434622,51108,68,purple,purple,purple,purple,1,713,purpleWHITE,383.514,435335,1096.514,1,28.417,231.217,434.018,202.832,405.633,608.42,biasInCon,purple
1,bas,stp,2,DMCC8760894,bas_stp_run2_DMCC8760894,PURPLE,Con,bias,purple,1200,438222,51108,69,purple,purple,purple,purple,1,752.5,purplePURPLE,387.114,438974.5,1139.614,1,28.417,231.217,434.018,202.832,405.633,608.42,biasCon,purple
1,bas,stp,2,DMCC8760894,bas_stp_run2_DMCC8760894,BLUE,Con,bias,blue,2400,441822,51108,70,blue,blue,blue,blue,1,677.5,blueBLUE,390.714,442499.5,1068.214,1,28.417,231.217,434.018,202.832,405.633,608.42,biasCon,blue
1,bas,stp,2,DMCC8760894,bas_stp_run2_DMCC8760894,BLACK,Con,PC50,black,2400,446621,51108,71,black,black,black,black,1,624,blackBLACK,395.513,447245,1019.513,1,28.417,231.217,434.018,202.832,405.633,608.42,PC50Con,black
1,bas,stp,2,DMCC8760894,bas_stp_run2_DMCC8760894,PURPLE,Con,bias,purple,3600,451421,51108,72,purple,purple,purple,purple,1,693,purplePURPLE,400.313,452114,1093.313,1,28.417,231.217,434.018,202.832,405.633,608.42,biasCon,purple
1,bas,stp,2,DMCC8760894,bas_stp_run2_DMCC8760894,PINK,Con,PC50,pink,2400,487419,51108,73,pink,pink,pink,pink,1,703,pinkPINK,436.311,488122,1139.311,1,28.417,231.217,434.018,202.832,405.633,608.42,PC50Con,pink
1,bas,stp,2,DMCC8760894,bas_stp_run2_DMCC8760894,BLUE,Con,bias,blue,3600,492218,51108,74,blue,blue,blue,blue,1,663,blueBLUE,441.11,492881,1104.11,1,28.417,231.217,434.018,202.832,405.633,608.42,biasCon,blue
1,bas,stp,2,DMCC8760894,bas_stp_run2_DMCC8760894,BLUE,Con,bias,blue,2400,498218,51108,75,blue,blue,blue,blue,1,671,blueBLUE,447.11,498889,1118.11,1,28.417,231.217,434.018,202.832,405.633,608.42,biasCon,blue
1,bas,stp,2,DMCC8760894,bas_stp_run2_DMCC8760894,PURPLE,InCon,bias,blue,3600,503018,51108,76,blue,blue,blue,blue,1,872,bluePURPLE,451.91,503890,1323.91,1,28.417,231.217,434.018,202.832,405.633,608.42,biasInCon,blue
1,bas,stp,2,DMCC8760894,bas_stp_run2_DMCC8760894,PURPLE,Con,bias,purple,1200,509017,51108,77,purple,purple,purple,purple,1,815.5,purplePURPLE,457.909,509832.5,1273.409,1,28.417,231.217,434.018,202.832,405.633,608.42,biasCon,purple
1,bas,stp,2,DMCC8760894,bas_stp_run2_DMCC8760894,PINK,InCon,PC50,green,1200,512617,51108,78,green,green,green,green,1,820.5,greenPINK,461.509,513437.5,1282.009,1,28.417,231.217,434.018,202.832,405.633,608.42,PC50InCon,green
1,bas,stp,2,DMCC8760894,bas_stp_run2_DMCC8760894,RED,Con,bias,red,1200,516217,51108,79,red,red,red,red,1,633,redRED,465.109,516850,1098.109,1,28.417,231.217,434.018,202.832,405.633,608.42,biasCon,red
1,bas,stp,2,DMCC8760894,bas_stp_run2_DMCC8760894,BLUE,Con,bias,blue,3600,519817,51108,80,blue,blue,blue,blue,1,663.5,blueBLUE,468.709,520480.5,1132.209,1,28.417,231.217,434.018,202.832,405.633,608.42,biasCon,blue
1,bas,stp,2,DMCC8760894,bas_stp_run2_DMCC8760894,BLUE,Con,bias,blue,1200,525816,51108,81,blue,blue,blue,blue,1,713,blueBLUE,474.708,526529,1187.708,1,28.417,231.217,434.018,202.832,405.633,608.42,biasCon,blue
1,bas,stp,2,DMCC8760894,bas_stp_run2_DMCC8760894,PURPLE,Con,bias,purple,2400,529416,51108,82,purple,purple,purple,purple,1,810,purplePURPLE,478.308,530226,1288.308,1,28.417,231.217,434.018,202.832,405.633,608.42,biasCon,purple
1,bas,stp,2,DMCC8760894,bas_stp_run2_DMCC8760894,RED,Con,bias,red,3600,534216,51108,83,red,red,red,red,1,956.5,redRED,483.108,535172.5,1439.608,1,28.417,231.217,434.018,202.832,405.633,608.42,biasCon,red
1,bas,stp,2,DMCC8760894,bas_stp_run2_DMCC8760894,RED,InCon,bias,blue,2400,540215,51108,84,blue,blue,blue,blue,1,1270,blueRED,489.107,541485,1759.107,1,28.417,231.217,434.018,202.832,405.633,608.42,biasInCon,blue
1,bas,stp,2,DMCC8760894,bas_stp_run2_DMCC8760894,PURPLE,Con,bias,purple,1200,545015,51108,85,purple,purple,purple,purple,1,922.5,purplePURPLE,493.907,545937.5,1416.407,1,28.417,231.217,434.018,202.832,405.633,608.42,biasCon,purple
1,bas,stp,2,DMCC8760894,bas_stp_run2_DMCC8760894,BLACK,Con,PC50,black,2400,548615,51108,86,black,black,black,black,1,1022.5,blackBLACK,497.507,549637.5,1520.007,1,28.417,231.217,434.018,202.832,405.633,608.42,PC50Con,black
1,bas,stp,2,DMCC8760894,bas_stp_run2_DMCC8760894,BLUE,InCon,bias,white,2400,553415,51108,87,white,white,white,white,1,734.5,whiteBLUE,502.307,554149.5,1236.807,1,28.417,231.217,434.018,202.832,405.633,608.42,biasInCon,white
1,bas,stp,2,DMCC8760894,bas_stp_run2_DMCC8760894,YELLOW,Con,PC50,yellow,2400,558214,51108,88,yellow,yellow,yellow,yellow,1,938.5,yellowYELLOW,507.106,559152.5,1445.606,1,28.417,231.217,434.018,202.832,405.633,608.42,PC50Con,yellow
1,bas,stp,2,DMCC8760894,bas_stp_run2_DMCC8760894,RED,Con,bias,red,3600,563014,51108,89,red,red,red,red,1,664.5,redRED,511.906,563678.5,1176.406,1,28.417,231.217,434.018,202.832,405.633,608.42,biasCon,red
1,bas,stp,2,DMCC8760894,bas_stp_run2_DMCC8760894,BLACK,Con,PC50,black,3600,569014,51108,90,black,black,black,black,1,797,blackBLACK,517.906,569811,1314.906,1,28.417,231.217,434.018,202.832,405.633,608.42,PC50Con,black
1,bas,stp,2,DMCC8760894,bas_stp_run2_DMCC8760894,WHITE,Con,bias,white,1200,575013,51108,91,white,white,white,white,1,889.5,whiteWHITE,523.905,575902.5,1413.405,1,28.417,231.217,434.018,202.832,405.633,608.42,biasCon,white
1,bas,stp,2,DMCC8760894,bas_stp_run2_DMCC8760894,GREEN,InCon,PC50,black,1200,578613,51108,92,black,black,black,black,1,951.5,blackGREEN,527.505,579564.5,1479.005,1,28.417,231.217,434.018,202.832,405.633,608.42,PC50InCon,black
1,bas,stp,2,DMCC8760894,bas_stp_run2_DMCC8760894,BLACK,InCon,PC50,pink,2400,582213,51108,93,pink,pink,pink,pink,1,855.5,pinkBLACK,531.105,583068.5,1386.605,1,28.417,231.217,434.018,202.832,405.633,608.42,PC50InCon,pink
1,bas,stp,2,DMCC8760894,bas_stp_run2_DMCC8760894,RED,Con,bias,red,3600,587012,51108,94,red,red,red,red,1,778.5,redRED,535.904,587790.5,1314.404,1,28.417,231.217,434.018,202.832,405.633,608.42,biasCon,red
1,bas,stp,2,DMCC8760894,bas_stp_run2_DMCC8760894,RED,Con,bias,red,3600,593012,51108,95,red,red,red,red,1,682,redRED,541.904,593694,1223.904,1,28.417,231.217,434.018,202.832,405.633,608.42,biasCon,red
1,bas,stp,2,DMCC8760894,bas_stp_run2_DMCC8760894,BLACK,InCon,PC50,yellow,1200,599012,51108,96,yellow,yellow,yellow,yellow,1,1477.5,yellowBLACK,547.904,600489.5,2025.404,1,28.417,231.217,434.018,202.832,405.633,608.42,PC50InCon,yellow
1,bas,stp,2,DMCC8760894,bas_stp_run2_DMCC8760894,WHITE,InCon,bias,purple,2400,602625,51108,97,purple,purple,purple,purple,1,868.5,purpleWHITE,551.517,603493.5,1420.017,1,28.417,231.217,434.018,202.832,405.633,608.42,biasInCon,purple
1,bas,stp,2,DMCC8760894,bas_stp_run2_DMCC8760894,GREEN,Con,PC50,green,1200,607424,51108,98,green,green,green,green,1,887.5,greenGREEN,556.316,608311.5,1443.816,1,28.417,231.217,434.018,202.832,405.633,608.42,PC50Con,green
1,bas,stp,2,DMCC8760894,bas_stp_run2_DMCC8760894,WHITE,Con,bias,white,1200,611024,51108,99,white,white,white,white,1,772,whiteWHITE,559.916,611796,1331.916,1,28.417,231.217,434.018,202.832,405.633,608.42,biasCon,white
1,bas,stp,2,DMCC8760894,bas_stp_run2_DMCC8760894,WHITE,Con,bias,white,3600,614624,51108,100,white,white,white,white,1,773.5,whiteWHITE,563.516,615397.5,1337.016,1,28.417,231.217,434.018,202.832,405.633,608.42,biasCon,white
1,bas,stp,2,DMCC8760894,bas_stp_run2_DMCC8760894,PINK,Con,PC50,pink,3600,620623,51108,101,pink,pink,pink,pink,1,833,pinkPINK,569.515,621456,1402.515,1,28.417,231.217,434.018,202.832,405.633,608.42,PC50Con,pink
1,bas,stp,2,DMCC8760894,bas_stp_run2_DMCC8760894,WHITE,InCon,bias,red,1200,626623,51108,102,red,red,red,red,1,1380.5,redWHITE,575.515,628003.5,1956.015,1,28.417,231.217,434.018,202.832,405.633,608.42,biasInCon,red
1,bas,stp,2,DMCC8760894,bas_stp_run2_DMCC8760894,PURPLE,Con,bias,purple,2400,630223,51108,103,purple,purple,purple,purple,1,1030,purplePURPLE,579.115,631253,1609.115,1,28.417,231.217,434.018,202.832,405.633,608.42,biasCon,purple
1,bas,stp,2,DMCC8760894,bas_stp_run2_DMCC8760894,RED,InCon,bias,purple,1200,635023,51108,104,purple,purple,purple,purple,1,882.5,purpleRED,583.915,635905.5,1466.415,1,28.417,231.217,434.018,202.832,405.633,608.42,biasInCon,purple
1,bas,stp,2,DMCC8760894,bas_stp_run2_DMCC8760894,YELLOW,InCon,PC50,green,2400,638622,51108,105,green,green,green,green,1,792.5,greenYELLOW,587.514,639414.5,1380.014,1,28.417,231.217,434.018,202.832,405.633,608.42,PC50InCon,green
1,bas,stp,2,DMCC8760894,bas_stp_run2_DMCC8760894,WHITE,Con,bias,white,3600,643422,51108,106,white,white,white,white,1,676,whiteWHITE,592.314,644098,1268.314,1,28.417,231.217,434.018,202.832,405.633,608.42,biasCon,white
1,bas,stp,2,DMCC8760894,bas_stp_run2_DMCC8760894,PINK,InCon,PC50,yellow,3600,649422,51108,107,yellow,yellow,yellow,yellow,1,754.5,yellowPINK,598.314,650176.5,1352.814,1,28.417,231.217,434.018,202.832,405.633,608.42,PC50InCon,yellow
1,bas,stp,2,DMCC8760894,bas_stp_run2_DMCC8760894,WHITE,Con,bias,white,2400,655421,51108,108,white,white,white,white,1,1042.5,whiteWHITE,604.313,656463.5,1646.813,1,28.417,231.217,434.018,202.832,405.633,608.42,biasCon,white
1,pro,stp,1,DMCC8760894,pro_stp_run1_DMCC8760894,WHITE,InCon,bias,blue,3600,88979,58260,1,purple,"purple-spoke """"""""purp-blue""""""""; muffled",blue,purple,0,1249.5,blueWHITE,30.719,90228.5,1280.219,0,28.413,231.223,434.019,202.836,405.633,608.429,biasInCon,purple
1,pro,stp,1,DMCC8760894,pro_stp_run1_DMCC8760894,PINK,Con,PC50,pink,3600,94979,58260,2,pink,unintelligible,pink,pink,1,677,pinkPINK,36.719,95656,713.719,1,28.413,231.223,434.019,202.836,405.633,608.429,PC50Con,pink
1,pro,stp,1,DMCC8760894,pro_stp_run1_DMCC8760894,WHITE,InCon,bias,red,1200,100979,58260,3,red,red,red,red,1,697,redWHITE,42.719,101676,739.719,1,28.413,231.223,434.019,202.836,405.633,608.429,biasInCon,red
1,pro,stp,1,DMCC8760894,pro_stp_run1_DMCC8760894,BLUE,InCon,bias,white,2400,104579,58260,4,white,white,white,white,1,642,whiteBLUE,46.319,105221,688.319,1,28.413,231.223,434.019,202.836,405.633,608.429,biasInCon,white
1,pro,stp,1,DMCC8760894,pro_stp_run1_DMCC8760894,PURPLE,Con,bias,purple,1200,109379,58260,5,purple,purple,purple,purple,1,613.5,purplePURPLE,51.119,109992.5,664.619,1,28.413,231.223,434.019,202.836,405.633,608.429,biasCon,purple
1,pro,stp,1,DMCC8760894,pro_stp_run1_DMCC8760894,RED,InCon,bias,purple,2400,112979,58260,6,purple,purple,purple,purple,1,669.5,purpleRED,54.719,113648.5,724.219,1,28.413,231.223,434.019,202.836,405.633,608.429,biasInCon,purple
1,pro,stp,1,DMCC8760894,pro_stp_run1_DMCC8760894,BLUE,InCon,bias,white,1200,117779,58260,7,white,white,white,white,1,666,whiteBLUE,59.519,118445,725.519,1,28.413,231.223,434.019,202.836,405.633,608.429,biasInCon,white
1,pro,stp,1,DMCC8760894,pro_stp_run1_DMCC8760894,YELLOW,InCon,PC50,pink,2400,121379,58260,8,pink,pink,pink,pink,1,746.5,pinkYELLOW,63.119,122125.5,809.619,1,28.413,231.223,434.019,202.836,405.633,608.429,PC50InCon,pink
1,pro,stp,1,DMCC8760894,pro_stp_run1_DMCC8760894,PINK,InCon,PC50,black,3600,126179,58260,9,black,black,black,black,1,567,blackPINK,67.919,126746,634.919,1,28.413,231.223,434.019,202.836,405.633,608.429,PC50InCon,black
1,pro,stp,1,DMCC8760894,pro_stp_run1_DMCC8760894,GREEN,Con,PC50,green,1200,132179,58260,10,green,green,green,green,1,687.5,greenGREEN,73.919,132866.5,761.419,1,28.413,231.223,434.019,202.836,405.633,608.429,PC50Con,green
1,pro,stp,1,DMCC8760894,pro_stp_run1_DMCC8760894,WHITE,InCon,bias,red,2400,135779,58260,11,red,red,red,red,1,626.5,redWHITE,77.519,136405.5,704.019,1,28.413,231.223,434.019,202.836,405.633,608.429,biasInCon,red
1,pro,stp,1,DMCC8760894,pro_stp_run1_DMCC8760894,YELLOW,Con,PC50,yellow,3600,140579,58260,12,yellow,yellow,yellow,yellow,1,610,yellowYELLOW,82.319,141189,692.319,1,28.413,231.223,434.019,202.836,405.633,608.429,PC50Con,yellow
1,pro,stp,1,DMCC8760894,pro_stp_run1_DMCC8760894,WHITE,InCon,bias,purple,1200,146578,58260,13,purple,purple,purple,purple,1,630,purpleWHITE,88.318,147208,718.318,1,28.413,231.223,434.019,202.836,405.633,608.429,biasInCon,purple
1,pro,stp,1,DMCC8760894,pro_stp_run1_DMCC8760894,RED,InCon,bias,white,2400,150178,58260,14,white,white,white,white,1,636,whiteRED,91.918,150814,727.918,1,28.413,231.223,434.019,202.836,405.633,608.429,biasInCon,white
1,pro,stp,1,DMCC8760894,pro_stp_run1_DMCC8760894,WHITE,InCon,bias,purple,1200,154978,58260,15,purple,purple,purple,purple,1,634,purpleWHITE,96.718,155612,730.718,1,28.413,231.223,434.019,202.836,405.633,608.429,biasInCon,purple
1,pro,stp,1,DMCC8760894,pro_stp_run1_DMCC8760894,GREEN,InCon,PC50,pink,3600,158578,58260,16,pink,pink,pink,pink,1,667,pinkGREEN,100.318,159245,767.318,1,28.413,231.223,434.019,202.836,405.633,608.429,PC50InCon,pink
1,pro,stp,1,DMCC8760894,pro_stp_run1_DMCC8760894,PURPLE,InCon,bias,white,2400,164578,58260,17,white,white,white,white,1,700,whitePURPLE,106.318,165278,806.318,1,28.413,231.223,434.019,202.836,405.633,608.429,biasInCon,white
1,pro,stp,1,DMCC8760894,pro_stp_run1_DMCC8760894,GREEN,InCon,PC50,yellow,2400,169378,58260,18,yellow,yellow,yellow,yellow,1,648,yellowGREEN,111.118,170026,759.118,1,28.413,231.223,434.019,202.836,405.633,608.429,PC50InCon,yellow
1,pro,stp,1,DMCC8760894,pro_stp_run1_DMCC8760894,PURPLE,InCon,bias,red,3600,174178,58260,19,red,red-muffled,red,red,1,658,redPURPLE,115.918,174836,773.918,1,28.413,231.223,434.019,202.836,405.633,608.429,biasInCon,red
1,pro,stp,1,DMCC8760894,pro_stp_run1_DMCC8760894,WHITE,Con,bias,white,3600,180178,58260,20,white,white,white,white,1,632.5,whiteWHITE,121.918,180810.5,754.418,1,28.413,231.223,434.019,202.836,405.633,608.429,biasCon,white
1,pro,stp,1,DMCC8760894,pro_stp_run1_DMCC8760894,RED,InCon,bias,purple,3600,186178,58260,21,purple,purple,purple,purple,1,688,purpleRED,127.918,186866,815.918,1,28.413,231.223,434.019,202.836,405.633,608.429,biasInCon,purple
1,pro,stp,1,DMCC8760894,pro_stp_run1_DMCC8760894,BLUE,InCon,bias,red,2400,192178,58260,22,red,red,red,red,1,734,redBLUE,133.918,192912,867.918,1,28.413,231.223,434.019,202.836,405.633,608.429,biasInCon,red
1,pro,stp,1,DMCC8760894,pro_stp_run1_DMCC8760894,BLUE,Con,bias,blue,1200,196978,58260,23,blue,blue,blue,blue,1,735.5,blueBLUE,138.718,197713.5,874.218,1,28.413,231.223,434.019,202.836,405.633,608.429,biasCon,blue
1,pro,stp,1,DMCC8760894,pro_stp_run1_DMCC8760894,BLUE,Con,bias,blue,1200,200578,58260,24,blue,blue-muffled,blue,blue,1,720.5,blueBLUE,142.318,201298.5,862.818,1,28.413,231.223,434.019,202.836,405.633,608.429,biasCon,blue
1,pro,stp,1,DMCC8760894,pro_stp_run1_DMCC8760894,GREEN,Con,PC50,green,3600,204177,58260,25,green,green,green,green,1,751.5,greenGREEN,145.917,204928.5,897.417,1,28.413,231.223,434.019,202.836,405.633,608.429,PC50Con,green
1,pro,stp,1,DMCC8760894,pro_stp_run1_DMCC8760894,PURPLE,InCon,bias,blue,3600,210177,58260,26,blue,blue-very muffled,blue,blue,1,874,bluePURPLE,151.917,211051,1025.917,1,28.413,231.223,434.019,202.836,405.633,608.429,biasInCon,blue
1,pro,stp,1,DMCC8760894,pro_stp_run1_DMCC8760894,YELLOW,Con,PC50,yellow,2400,216177,58260,27,yellow,yellow,yellow,yellow,1,686,yellowYELLOW,157.917,216863,843.917,1,28.413,231.223,434.019,202.836,405.633,608.429,PC50Con,yellow
1,pro,stp,1,DMCC8760894,pro_stp_run1_DMCC8760894,PURPLE,InCon,bias,blue,1200,220977,58260,28,blue,blue,blue,blue,1,718,bluePURPLE,162.717,221695,880.717,1,28.413,231.223,434.019,202.836,405.633,608.429,biasInCon,blue
1,pro,stp,1,DMCC8760894,pro_stp_run1_DMCC8760894,PURPLE,Con,bias,purple,2400,224577,58260,29,purple,purple,purple,purple,1,632.5,purplePURPLE,166.317,225209.5,798.817,1,28.413,231.223,434.019,202.836,405.633,608.429,biasCon,purple
1,pro,stp,1,DMCC8760894,pro_stp_run1_DMCC8760894,BLACK,InCon,PC50,green,2400,229377,58260,30,green,green-very muffled,green,green,1,808.5,greenBLACK,171.117,230185.5,979.617,1,28.413,231.223,434.019,202.836,405.633,608.429,PC50InCon,green
1,pro,stp,1,DMCC8760894,pro_stp_run1_DMCC8760894,BLUE,InCon,bias,purple,1200,234177,58260,31,purple,purple,purple,purple,1,656.5,purpleBLUE,175.917,234833.5,832.417,1,28.413,231.223,434.019,202.836,405.633,608.429,biasInCon,purple
1,pro,stp,1,DMCC8760894,pro_stp_run1_DMCC8760894,RED,Con,bias,red,1200,237777,58260,32,red,red,red,red,1,571,redRED,179.517,238348,750.517,1,28.413,231.223,434.019,202.836,405.633,608.429,biasCon,red
1,pro,stp,1,DMCC8760894,pro_stp_run1_DMCC8760894,RED,InCon,bias,blue,3600,241377,58260,33,blue,blue,blue,blue,1,715.5,blueRED,183.117,242092.5,898.617,1,28.413,231.223,434.019,202.836,405.633,608.429,biasInCon,blue
1,pro,stp,1,DMCC8760894,pro_stp_run1_DMCC8760894,YELLOW,InCon,PC50,black,2400,247377,58260,34,black,black,black,black,1,693.5,blackYELLOW,189.117,248070.5,882.617,1,28.413,231.223,434.019,202.836,405.633,608.429,PC50InCon,black
1,pro,stp,1,DMCC8760894,pro_stp_run1_DMCC8760894,RED,InCon,bias,blue,1200,252177,58260,35,blue,blue,blue,blue,1,732,blueRED,193.917,252909,925.917,1,28.413,231.223,434.019,202.836,405.633,608.429,biasInCon,blue
1,pro,stp,1,DMCC8760894,pro_stp_run1_DMCC8760894,BLACK,Con,PC50,black,3600,255777,58260,36,black,black,black,black,1,672.5,blackBLACK,197.517,256449.5,870.017,1,28.413,231.223,434.019,202.836,405.633,608.429,PC50Con,black
1,pro,stp,1,DMCC8760894,pro_stp_run1_DMCC8760894,BLUE,InCon,bias,purple,2400,291776,58260,37,purple,purple,purple,purple,1,637.5,purpleBLUE,233.516,292413.5,871.016,1,28.413,231.223,434.019,202.836,405.633,608.429,biasInCon,purple
1,pro,stp,1,DMCC8760894,pro_stp_run1_DMCC8760894,BLUE,InCon,bias,white,1200,296576,58260,38,white,white,white,white,1,663.5,whiteBLUE,238.316,297239.5,901.816,1,28.413,231.223,434.019,202.836,405.633,608.429,biasInCon,white
1,pro,stp,1,DMCC8760894,pro_stp_run1_DMCC8760894,RED,Con,bias,red,2400,300176,58260,39,red,red,red,red,1,620,redRED,241.916,300796,861.916,1,28.413,231.223,434.019,202.836,405.633,608.429,biasCon,red
1,pro,stp,1,DMCC8760894,pro_stp_run1_DMCC8760894,RED,InCon,bias,blue,3600,304976,58260,40,blue,blue,blue,blue,1,639.5,blueRED,246.716,305615.5,886.216,1,28.413,231.223,434.019,202.836,405.633,608.429,biasInCon,blue
1,pro,stp,1,DMCC8760894,pro_stp_run1_DMCC8760894,RED,InCon,bias,white,3600,310976,58260,41,white,white,white,white,1,640,whiteRED,252.716,311616,892.716,1,28.413,231.223,434.019,202.836,405.633,608.429,biasInCon,white
1,pro,stp,1,DMCC8760894,pro_stp_run1_DMCC8760894,YELLOW,InCon,PC50,pink,1200,316975,58260,42,pink,pink,pink,pink,1,704.5,pinkYELLOW,258.715,317679.5,963.215,1,28.413,231.223,434.019,202.836,405.633,608.429,PC50InCon,pink
1,pro,stp,1,DMCC8760894,pro_stp_run1_DMCC8760894,GREEN,InCon,PC50,pink,2400,320575,58260,43,pink,pink,pink,pink,1,651.5,pinkGREEN,262.315,321226.5,913.815,1,28.413,231.223,434.019,202.836,405.633,608.429,PC50InCon,pink
1,pro,stp,1,DMCC8760894,pro_stp_run1_DMCC8760894,RED,InCon,bias,purple,3600,325375,58260,44,purple,purple,purple,purple,1,672,purpleRED,267.115,326047,939.115,1,28.413,231.223,434.019,202.836,405.633,608.429,biasInCon,purple
1,pro,stp,1,DMCC8760894,pro_stp_run1_DMCC8760894,RED,InCon,bias,purple,1200,331375,58260,45,purple,purple,purple,purple,1,681,purpleRED,273.115,332056,954.115,1,28.413,231.223,434.019,202.836,405.633,608.429,biasInCon,purple
1,pro,stp,1,DMCC8760894,pro_stp_run1_DMCC8760894,YELLOW,Con,PC50,yellow,2400,334975,58260,46,yellow,yellow,yellow,yellow,1,717.5,yellowYELLOW,276.715,335692.5,994.215,1,28.413,231.223,434.019,202.836,405.633,608.429,PC50Con,yellow
1,pro,stp,1,DMCC8760894,pro_stp_run1_DMCC8760894,PURPLE,InCon,bias,red,3600,339775,58260,47,red,red,red,red,1,674.5,redPURPLE,281.515,340449.5,956.015,1,28.413,231.223,434.019,202.836,405.633,608.429,biasInCon,red
1,pro,stp,1,DMCC8760894,pro_stp_run1_DMCC8760894,PURPLE,InCon,bias,blue,1200,345775,58260,48,blue,"blue-unsure, sounds like """"""""bluey"""""""" or """"""""blu-een""""""""",blue,blue,1,817.5,bluePURPLE,287.515,346592.5,1105.015,1,28.413,231.223,434.019,202.836,405.633,608.429,biasInCon,blue
1,pro,stp,1,DMCC8760894,pro_stp_run1_DMCC8760894,WHITE,Con,bias,white,3600,349375,58260,49,white,white,white,white,1,711.5,whiteWHITE,291.115,350086.5,1002.615,1,28.413,231.223,434.019,202.836,405.633,608.429,biasCon,white
1,pro,stp,1,DMCC8760894,pro_stp_run1_DMCC8760894,BLACK,Con,PC50,black,3600,355375,58260,50,black,black,black,black,1,687,blackBLACK,297.115,356062,984.115,1,28.413,231.223,434.019,202.836,405.633,608.429,PC50Con,black
1,pro,stp,1,DMCC8760894,pro_stp_run1_DMCC8760894,YELLOW,Con,PC50,yellow,3600,361375,58260,51,yellow,yellow,yellow,yellow,1,696.5,yellowYELLOW,303.115,362071.5,999.615,1,28.413,231.223,434.019,202.836,405.633,608.429,PC50Con,yellow
1,pro,stp,1,DMCC8760894,pro_stp_run1_DMCC8760894,WHITE,InCon,bias,blue,1200,367375,58260,52,blue,blue,blue,blue,1,828,blueWHITE,309.115,368203,1137.115,1,28.413,231.223,434.019,202.836,405.633,608.429,biasInCon,blue
1,pro,stp,1,DMCC8760894,pro_stp_run1_DMCC8760894,WHITE,InCon,bias,purple,1200,370975,58260,53,purple,purple,purple,purple,1,744.5,purpleWHITE,312.715,371719.5,1057.215,1,28.413,231.223,434.019,202.836,405.633,608.429,biasInCon,purple
1,pro,stp,1,DMCC8760894,pro_stp_run1_DMCC8760894,PINK,Con,PC50,pink,2400,374574,58260,54,pink,"unintelligible-could be """"""""pink"""""""" or """"""""blue""""""""",pink,pink,1,778.5,pinkPINK,316.314,375352.5,1094.814,1,28.413,231.223,434.019,202.836,405.633,608.429,PC50Con,pink
1,pro,stp,1,DMCC8760894,pro_stp_run1_DMCC8760894,YELLOW,InCon,PC50,black,1200,379374,58260,55,black,black,black,black,1,672.5,blackYELLOW,321.114,380046.5,993.614,1,28.413,231.223,434.019,202.836,405.633,608.429,PC50InCon,black
1,pro,stp,1,DMCC8760894,pro_stp_run1_DMCC8760894,BLACK,InCon,PC50,green,2400,382974,58260,56,green,green,green,green,1,824,greenBLACK,324.714,383798,1148.714,1,28.413,231.223,434.019,202.836,405.633,608.429,PC50InCon,green
1,pro,stp,1,DMCC8760894,pro_stp_run1_DMCC8760894,BLUE,InCon,bias,white,2400,387774,58260,57,white,white,white,white,1,677.5,whiteBLUE,329.514,388451.5,1007.014,1,28.413,231.223,434.019,202.836,405.633,608.429,biasInCon,white
1,pro,stp,1,DMCC8760894,pro_stp_run1_DMCC8760894,PURPLE,InCon,bias,white,2400,392574,58260,58,white,white,white,white,1,767.5,whitePURPLE,334.314,393341.5,1101.814,1,28.413,231.223,434.019,202.836,405.633,608.429,biasInCon,white
1,pro,stp,1,DMCC8760894,pro_stp_run1_DMCC8760894,GREEN,Con,PC50,green,1200,397374,58260,59,green,green,green,green,1,757,greenGREEN,339.114,398131,1096.114,1,28.413,231.223,434.019,202.836,405.633,608.429,PC50Con,green
1,pro,stp,1,DMCC8760894,pro_stp_run1_DMCC8760894,GREEN,Con,PC50,green,3600,400974,58260,60,green,green,green,green,1,757,greenGREEN,342.714,401731,1099.714,1,28.413,231.223,434.019,202.836,405.633,608.429,PC50Con,green
1,pro,stp,1,DMCC8760894,pro_stp_run1_DMCC8760894,BLUE,Con,bias,blue,3600,406974,58260,61,green,blue,blue,blue,1,723.5,blueBLUE,348.714,407697.5,1072.214,1,28.413,231.223,434.019,202.836,405.633,608.429,biasCon,blue
1,pro,stp,1,DMCC8760894,pro_stp_run1_DMCC8760894,PINK,InCon,PC50,black,3600,412974,58260,62,black,black,black,black,1,692,blackPINK,354.714,413666,1046.714,1,28.413,231.223,434.019,202.836,405.633,608.429,PC50InCon,black
1,pro,stp,1,DMCC8760894,pro_stp_run1_DMCC8760894,PURPLE,Con,bias,purple,2400,418974,58260,63,purple,purple,purple,purple,1,735,purplePURPLE,360.714,419709,1095.714,1,28.413,231.223,434.019,202.836,405.633,608.429,biasCon,purple
1,pro,stp,1,DMCC8760894,pro_stp_run1_DMCC8760894,BLUE,InCon,bias,red,2400,423774,58260,64,red,red,red,red,1,625.5,redBLUE,365.514,424399.5,991.014,1,28.413,231.223,434.019,202.836,405.633,608.429,biasInCon,red
1,pro,stp,1,DMCC8760894,pro_stp_run1_DMCC8760894,WHITE,InCon,bias,red,1200,428574,58260,65,red,red,red,red,1,652.5,redWHITE,370.314,429226.5,1022.814,1,28.413,231.223,434.019,202.836,405.633,608.429,biasInCon,red
1,pro,stp,1,DMCC8760894,pro_stp_run1_DMCC8760894,BLUE,Con,bias,blue,2400,432173,58260,66,blue,blue,blue,blue,1,702.5,blueBLUE,373.913,432875.5,1076.413,1,28.413,231.223,434.019,202.836,405.633,608.429,biasCon,blue
1,pro,stp,1,DMCC8760894,pro_stp_run1_DMCC8760894,GREEN,InCon,PC50,yellow,1200,436973,58260,67,yellow,yellow-muffled,yellow,yellow,1,760,yellowGREEN,378.713,437733,1138.713,1,28.413,231.223,434.019,202.836,405.633,608.429,PC50InCon,yellow
1,pro,stp,1,DMCC8760894,pro_stp_run1_DMCC8760894,RED,InCon,bias,blue,3600,440573,58260,68,blue,blue,blue,blue,1,722.5,blueRED,382.313,441295.5,1104.813,1,28.413,231.223,434.019,202.836,405.633,608.429,biasInCon,blue
1,pro,stp,1,DMCC8760894,pro_stp_run1_DMCC8760894,WHITE,InCon,bias,purple,1200,446573,58260,69,purple,purple,purple,purple,1,674.5,purpleWHITE,388.313,447247.5,1062.813,1,28.413,231.223,434.019,202.836,405.633,608.429,biasInCon,purple
1,pro,stp,1,DMCC8760894,pro_stp_run1_DMCC8760894,WHITE,InCon,bias,red,3600,450173,58260,70,red,red,red,red,1,616,redWHITE,391.913,450789,1007.913,1,28.413,231.223,434.019,202.836,405.633,608.429,biasInCon,red
1,pro,stp,1,DMCC8760894,pro_stp_run1_DMCC8760894,PURPLE,InCon,bias,blue,1200,456173,58260,71,blue,blue,blue,blue,1,757.5,bluePURPLE,397.913,456930.5,1155.413,1,28.413,231.223,434.019,202.836,405.633,608.429,biasInCon,blue
1,pro,stp,1,DMCC8760894,pro_stp_run1_DMCC8760894,PURPLE,Con,bias,purple,2400,459773,58260,72,purple,purple,purple,purple,1,632,purplePURPLE,401.513,460405,1033.513,1,28.413,231.223,434.019,202.836,405.633,608.429,biasCon,purple
1,pro,stp,1,DMCC8760894,pro_stp_run1_DMCC8760894,WHITE,InCon,bias,red,1200,494572,58260,73,red,red,red,red,1,826,redWHITE,436.312,495398,1262.312,1,28.413,231.223,434.019,202.836,405.633,608.429,biasInCon,red
1,pro,stp,1,DMCC8760894,pro_stp_run1_DMCC8760894,RED,InCon,bias,blue,3600,498172,58260,74,blue,blue-muffled,blue,blue,1,804.5,blueRED,439.912,498976.5,1244.412,1,28.413,231.223,434.019,202.836,405.633,608.429,biasInCon,blue
1,pro,stp,1,DMCC8760894,pro_stp_run1_DMCC8760894,PURPLE,InCon,bias,white,1200,504172,58260,75,white,white,white,white,1,757.5,whitePURPLE,445.912,504929.5,1203.412,1,28.413,231.223,434.019,202.836,405.633,608.429,biasInCon,white
1,pro,stp,1,DMCC8760894,pro_stp_run1_DMCC8760894,WHITE,InCon,bias,red,2400,507772,58260,76,red,red,red,red,1,632,redWHITE,449.512,508404,1081.512,1,28.413,231.223,434.019,202.836,405.633,608.429,biasInCon,red
1,pro,stp,1,DMCC8760894,pro_stp_run1_DMCC8760894,PURPLE,InCon,bias,blue,2400,512572,58260,77,blue,blue,blue,blue,1,793.5,bluePURPLE,454.312,513365.5,1247.812,1,28.413,231.223,434.019,202.836,405.633,608.429,biasInCon,blue
1,pro,stp,1,DMCC8760894,pro_stp_run1_DMCC8760894,YELLOW,InCon,PC50,black,1200,517372,58260,78,black,black,black,black,1,948.5,blackYELLOW,459.112,518320.5,1407.612,1,28.413,231.223,434.019,202.836,405.633,608.429,PC50InCon,black
1,pro,stp,1,DMCC8760894,pro_stp_run1_DMCC8760894,RED,InCon,bias,white,2400,520972,58260,79,white,white,white,white,1,680.5,whiteRED,462.712,521652.5,1143.212,1,28.413,231.223,434.019,202.836,405.633,608.429,biasInCon,white
1,pro,stp,1,DMCC8760894,pro_stp_run1_DMCC8760894,GREEN,InCon,PC50,pink,2400,525772,58260,80,pink,pink,pink,pink,1,688,pinkGREEN,467.512,526460,1155.512,1,28.413,231.223,434.019,202.836,405.633,608.429,PC50InCon,pink
1,pro,stp,1,DMCC8760894,pro_stp_run1_DMCC8760894,PURPLE,Con,bias,purple,3600,530572,58260,81,purple,purple,purple,purple,1,656.5,purplePURPLE,472.312,531228.5,1128.812,1,28.413,231.223,434.019,202.836,405.633,608.429,biasCon,purple
1,pro,stp,1,DMCC8760894,pro_stp_run1_DMCC8760894,BLACK,InCon,PC50,green,3600,536572,58260,82,green,green,green,green,1,758,greenBLACK,478.312,537330,1236.312,1,28.413,231.223,434.019,202.836,405.633,608.429,PC50InCon,green
1,pro,stp,1,DMCC8760894,pro_stp_run1_DMCC8760894,PURPLE,InCon,bias,red,1200,542572,58260,83,red,red,red,red,1,693.5,redPURPLE,484.312,543265.5,1177.812,1,28.413,231.223,434.019,202.836,405.633,608.429,biasInCon,red
1,pro,stp,1,DMCC8760894,pro_stp_run1_DMCC8760894,WHITE,InCon,bias,blue,3600,546171,58260,84,blue,blue,blue,blue,1,755,blueWHITE,487.911,546926,1242.911,1,28.413,231.223,434.019,202.836,405.633,608.429,biasInCon,blue
1,pro,stp,1,DMCC8760894,pro_stp_run1_DMCC8760894,PURPLE,Con,bias,purple,1200,552171,58260,85,purple,purple,purple,purple,1,721.5,purplePURPLE,493.911,552892.5,1215.411,1,28.413,231.223,434.019,202.836,405.633,608.429,biasCon,purple
1,pro,stp,1,DMCC8760894,pro_stp_run1_DMCC8760894,RED,InCon,bias,blue,1200,555771,58260,86,blue,blue,blue,blue,1,895.5,blueRED,497.511,556666.5,1393.011,1,28.413,231.223,434.019,202.836,405.633,608.429,biasInCon,blue
1,pro,stp,1,DMCC8760894,pro_stp_run1_DMCC8760894,BLUE,Con,bias,blue,2400,559371,58260,87,blue,blue,blue,blue,1,790.5,blueBLUE,501.111,560161.5,1291.611,1,28.413,231.223,434.019,202.836,405.633,608.429,biasCon,blue
1,pro,stp,1,DMCC8760894,pro_stp_run1_DMCC8760894,RED,Con,bias,red,3600,564171,58260,88,red,red,red,red,1,705.5,redRED,505.911,564876.5,1211.411,1,28.413,231.223,434.019,202.836,405.633,608.429,biasCon,red
1,pro,stp,1,DMCC8760894,pro_stp_run1_DMCC8760894,BLUE,InCon,bias,white,3600,570171,58260,89,white,white,white,white,1,788.5,whiteBLUE,511.911,570959.5,1300.411,1,28.413,231.223,434.019,202.836,405.633,608.429,biasInCon,white
1,pro,stp,1,DMCC8760894,pro_stp_run1_DMCC8760894,BLACK,Con,PC50,black,3600,576171,58260,90,black,black,black,black,1,846,blackBLACK,517.911,577017,1363.911,1,28.413,231.223,434.019,202.836,405.633,608.429,PC50Con,black
1,pro,stp,1,DMCC8760894,pro_stp_run1_DMCC8760894,WHITE,Con,bias,white,3600,582171,58260,91,white,white,white,white,1,824.5,whiteWHITE,523.911,582995.5,1348.411,1,28.413,231.223,434.019,202.836,405.633,608.429,biasCon,white
1,pro,stp,1,DMCC8760894,pro_stp_run1_DMCC8760894,BLUE,InCon,bias,purple,1200,588171,58260,92,purple,purple,purple,purple,1,665.5,purpleBLUE,529.911,588836.5,1195.411,1,28.413,231.223,434.019,202.836,405.633,608.429,biasInCon,purple
1,pro,stp,1,DMCC8760894,pro_stp_run1_DMCC8760894,BLUE,InCon,bias,red,1200,591771,58260,93,red,red,red,red,1,878.5,redBLUE,533.511,592649.5,1412.011,1,28.413,231.223,434.019,202.836,405.633,608.429,biasInCon,red
1,pro,stp,1,DMCC8760894,pro_stp_run1_DMCC8760894,GREEN,Con,PC50,green,2400,595371,58260,94,blue,green,green,green,1,1007.5,greenGREEN,537.111,596378.5,1544.611,1,28.413,231.223,434.019,202.836,405.633,608.429,PC50Con,green
1,pro,stp,1,DMCC8760894,pro_stp_run1_DMCC8760894,YELLOW,Con,PC50,yellow,2400,600171,58260,95,yellow,yellow,yellow,yellow,1,753,yellowYELLOW,541.911,600924,1294.911,1,28.413,231.223,434.019,202.836,405.633,608.429,PC50Con,yellow
1,pro,stp,1,DMCC8760894,pro_stp_run1_DMCC8760894,RED,InCon,bias,purple,2400,604970,58260,96,purple,purple,purple,purple,1,952.5,purpleRED,546.71,605922.5,1499.21,1,28.413,231.223,434.019,202.836,405.633,608.429,biasInCon,purple
1,pro,stp,1,DMCC8760894,pro_stp_run1_DMCC8760894,YELLOW,Con,PC50,yellow,3600,609770,58260,97,yellow,yellow,yellow,yellow,1,992.5,yellowYELLOW,551.51,610762.5,1544.01,1,28.413,231.223,434.019,202.836,405.633,608.429,PC50Con,yellow
1,pro,stp,1,DMCC8760894,pro_stp_run1_DMCC8760894,GREEN,Con,PC50,green,2400,615770,58260,98,green,green,green,green,1,836,greenGREEN,557.51,616606,1393.51,1,28.413,231.223,434.019,202.836,405.633,608.429,PC50Con,green
1,pro,stp,1,DMCC8760894,pro_stp_run1_DMCC8760894,GREEN,InCon,PC50,yellow,1200,620570,58260,99,yellow,yellow,yellow,yellow,1,764.5,yellowGREEN,562.31,621334.5,1326.81,1,28.413,231.223,434.019,202.836,405.633,608.429,PC50InCon,yellow
1,pro,stp,1,DMCC8760894,pro_stp_run1_DMCC8760894,WHITE,InCon,bias,purple,1200,624170,58260,100,purple,purple,purple,purple,1,716.5,purpleWHITE,565.91,624886.5,1282.41,1,28.413,231.223,434.019,202.836,405.633,608.429,biasInCon,purple
1,pro,stp,1,DMCC8760894,pro_stp_run1_DMCC8760894,RED,InCon,bias,purple,1200,627770,58260,101,purple,purple,purple,purple,1,697.5,purpleRED,569.51,628467.5,1267.01,1,28.413,231.223,434.019,202.836,405.633,608.429,biasInCon,purple
1,pro,stp,1,DMCC8760894,pro_stp_run1_DMCC8760894,WHITE,InCon,bias,purple,3600,631370,58260,102,purple,purple,purple,purple,1,872,purpleWHITE,573.11,632242,1445.11,1,28.413,231.223,434.019,202.836,405.633,608.429,biasInCon,purple
1,pro,stp,1,DMCC8760894,pro_stp_run1_DMCC8760894,PINK,InCon,PC50,black,3600,637370,58260,103,black,black,black,black,1,727.5,blackPINK,579.11,638097.5,1306.61,1,28.413,231.223,434.019,202.836,405.633,608.429,PC50InCon,black
1,pro,stp,1,DMCC8760894,pro_stp_run1_DMCC8760894,PINK,Con,PC50,pink,2400,643370,58260,104,pink,pink,pink,pink,1,1006,pinkPINK,585.11,644376,1591.11,1,28.413,231.223,434.019,202.836,405.633,608.429,PC50Con,pink
1,pro,stp,1,DMCC8760894,pro_stp_run1_DMCC8760894,BLUE,InCon,bias,white,2400,648170,58260,105,white,white,white,white,1,730.5,whiteBLUE,589.91,648900.5,1320.41,1,28.413,231.223,434.019,202.836,405.633,608.429,biasInCon,white
1,pro,stp,1,DMCC8760894,pro_stp_run1_DMCC8760894,PURPLE,InCon,bias,blue,2400,652970,58260,106,blue,blue,blue,blue,1,747,bluePURPLE,594.71,653717,1341.71,1,28.413,231.223,434.019,202.836,405.633,608.429,biasInCon,blue
1,pro,stp,1,DMCC8760894,pro_stp_run1_DMCC8760894,BLUE,Con,bias,blue,1200,657770,58260,107,blue,blue,blue,blue,1,616,blueBLUE,599.51,658386,1215.51,1,28.413,231.223,434.019,202.836,405.633,608.429,biasCon,blue
1,pro,stp,1,DMCC8760894,pro_stp_run1_DMCC8760894,YELLOW,InCon,PC50,pink,3600,661383,58260,108,pink,pink,pink,pink,1,801.5,pinkYELLOW,603.123,662184.5,1404.623,1,28.413,231.223,434.019,202.836,405.633,608.429,PC50InCon,pink
1,pro,stp,2,DMCC8760894,pro_stp_run2_DMCC8760894,PURPLE,InCon,bias,white,3600,68146,37425,1,white,white,white,white,1,705,whitePURPLE,30.721,68851,735.721,1,28.415,231.211,434.021,202.838,405.635,608.431,biasInCon,white
1,pro,stp,2,DMCC8760894,pro_stp_run2_DMCC8760894,BLUE,InCon,bias,purple,1200,74146,37425,2,purple,purple,purple,purple,1,883,purpleBLUE,36.721,75029,919.721,1,28.415,231.211,434.021,202.838,405.635,608.431,biasInCon,purple
1,pro,stp,2,DMCC8760894,pro_stp_run2_DMCC8760894,PINK,InCon,PC50,yellow,2400,77746,37425,3,yellow,yellow,yellow,yellow,1,756,yellowPINK,40.321,78502,796.321,1,28.415,231.211,434.021,202.838,405.635,608.431,PC50InCon,yellow
1,pro,stp,2,DMCC8760894,pro_stp_run2_DMCC8760894,RED,Con,bias,red,2400,82546,37425,4,red,red,red,red,1,646,redRED,45.121,83192,691.121,1,28.415,231.211,434.021,202.838,405.635,608.431,biasCon,red
1,pro,stp,2,DMCC8760894,pro_stp_run2_DMCC8760894,PINK,InCon,PC50,green,3600,87346,37425,5,green,green,green,green,1,767.5,greenPINK,49.921,88113.5,817.421,1,28.415,231.211,434.021,202.838,405.635,608.431,PC50InCon,green
1,pro,stp,2,DMCC8760894,pro_stp_run2_DMCC8760894,WHITE,Con,bias,white,1200,93346,37425,6,white,white,white,white,1,615,whiteWHITE,55.921,93961,670.921,1,28.415,231.211,434.021,202.838,405.635,608.431,biasCon,white
1,pro,stp,2,DMCC8760894,pro_stp_run2_DMCC8760894,BLUE,InCon,bias,red,1200,96946,37425,7,red,red,red,red,1,864.5,redBLUE,59.521,97810.5,924.021,1,28.415,231.211,434.021,202.838,405.635,608.431,biasInCon,red
1,pro,stp,2,DMCC8760894,pro_stp_run2_DMCC8760894,PURPLE,InCon,bias,red,1200,100546,37425,8,red,red,red,red,1,781,redPURPLE,63.121,101327,844.121,1,28.415,231.211,434.021,202.838,405.635,608.431,biasInCon,red
1,pro,stp,2,DMCC8760894,pro_stp_run2_DMCC8760894,WHITE,InCon,bias,blue,2400,104146,37425,9,blue,blue,blue,blue,1,851.5,blueWHITE,66.721,104997.5,918.221,1,28.415,231.211,434.021,202.838,405.635,608.431,biasInCon,blue
1,pro,stp,2,DMCC8760894,pro_stp_run2_DMCC8760894,WHITE,InCon,bias,blue,3600,108946,37425,10,blue,blue,blue,blue,1,744.5,blueWHITE,71.521,109690.5,816.021,1,28.415,231.211,434.021,202.838,405.635,608.431,biasInCon,blue
1,pro,stp,2,DMCC8760894,pro_stp_run2_DMCC8760894,RED,InCon,bias,purple,2400,114946,37425,11,purple,purple,purple,purple,1,719.5,purpleRED,77.521,115665.5,797.021,1,28.415,231.211,434.021,202.838,405.635,608.431,biasInCon,purple
1,pro,stp,2,DMCC8760894,pro_stp_run2_DMCC8760894,PURPLE,InCon,bias,red,3600,119745,37425,12,red,red,red,red,1,768.5,redPURPLE,82.32,120513.5,850.82,1,28.415,231.211,434.021,202.838,405.635,608.431,biasInCon,red
1,pro,stp,2,DMCC8760894,pro_stp_run2_DMCC8760894,PURPLE,Con,bias,purple,1200,125745,37425,13,purple,purple,purple,purple,1,858.5,purplePURPLE,88.32,126603.5,946.82,1,28.415,231.211,434.021,202.838,405.635,608.431,biasCon,purple
1,pro,stp,2,DMCC8760894,pro_stp_run2_DMCC8760894,RED,InCon,bias,white,3600,129345,37425,14,white,white,white,white,1,778,whiteRED,91.92,130123,869.92,1,28.415,231.211,434.021,202.838,405.635,608.431,biasInCon,white
1,pro,stp,2,DMCC8760894,pro_stp_run2_DMCC8760894,RED,InCon,bias,white,3600,135345,37425,15,white,white,white,white,1,1738.5,whiteRED,97.92,137083.5,1836.42,1,28.415,231.211,434.021,202.838,405.635,608.431,biasInCon,white
1,pro,stp,2,DMCC8760894,pro_stp_run2_DMCC8760894,YELLOW,InCon,PC50,green,2400,141345,37425,16,green,green,green,green,1,867,greenYELLOW,103.92,142212,970.92,1,28.415,231.211,434.021,202.838,405.635,608.431,PC50InCon,green
1,pro,stp,2,DMCC8760894,pro_stp_run2_DMCC8760894,WHITE,InCon,bias,red,3600,146145,37425,17,red,red,red,red,1,880.5,redWHITE,108.72,147025.5,989.22,1,28.415,231.211,434.021,202.838,405.635,608.431,biasInCon,red
1,pro,stp,2,DMCC8760894,pro_stp_run2_DMCC8760894,PURPLE,InCon,bias,white,1200,152145,37425,18,white,white,white,white,1,887.5,whitePURPLE,114.72,153032.5,1002.22,1,28.415,231.211,434.021,202.838,405.635,608.431,biasInCon,white
1,pro,stp,2,DMCC8760894,pro_stp_run2_DMCC8760894,RED,InCon,bias,blue,2400,155745,37425,19,blue,blue,blue,blue,1,901.5,blueRED,118.32,156646.5,1019.82,1,28.415,231.211,434.021,202.838,405.635,608.431,biasInCon,blue
1,pro,stp,2,DMCC8760894,pro_stp_run2_DMCC8760894,WHITE,InCon,bias,purple,1200,160545,37425,20,purple,purple,purple,purple,1,1787,purpleWHITE,123.12,162332,1910.12,1,28.415,231.211,434.021,202.838,405.635,608.431,biasInCon,purple
1,pro,stp,2,DMCC8760894,pro_stp_run2_DMCC8760894,BLUE,InCon,bias,red,2400,164145,37425,21,red,red,red,red,1,877,redBLUE,126.72,165022,1003.72,1,28.415,231.211,434.021,202.838,405.635,608.431,biasInCon,red
1,pro,stp,2,DMCC8760894,pro_stp_run2_DMCC8760894,GREEN,Con,PC50,green,3600,168945,37425,22,green,green,green,green,1,873,greenGREEN,131.52,169818,1004.52,1,28.415,231.211,434.021,202.838,405.635,608.431,PC50Con,green
1,pro,stp,2,DMCC8760894,pro_stp_run2_DMCC8760894,RED,Con,bias,red,1200,174945,37425,23,red,red,red,red,1,781,redRED,137.52,175726,918.52,1,28.415,231.211,434.021,202.838,405.635,608.431,biasCon,red
1,pro,stp,2,DMCC8760894,pro_stp_run2_DMCC8760894,GREEN,InCon,PC50,black,2400,178544,37425,24,black,black,black,black,1,927.5,blackGREEN,141.119,179471.5,1068.619,1,28.415,231.211,434.021,202.838,405.635,608.431,PC50InCon,black
1,pro,stp,2,DMCC8760894,pro_stp_run2_DMCC8760894,BLUE,InCon,bias,purple,1200,183344,37425,25,purple,purple,purple,purple,1,971,purpleBLUE,145.919,184315,1116.919,1,28.415,231.211,434.021,202.838,405.635,608.431,biasInCon,purple
1,pro,stp,2,DMCC8760894,pro_stp_run2_DMCC8760894,BLACK,InCon,PC50,yellow,3600,186944,37425,26,yellow,yellow,yellow,yellow,1,1120.5,yellowBLACK,149.519,188064.5,1270.019,1,28.415,231.211,434.021,202.838,405.635,608.431,PC50InCon,yellow
1,pro,stp,2,DMCC8760894,pro_stp_run2_DMCC8760894,YELLOW,Con,PC50,yellow,2400,192944,37425,27,yellow,yellow,yellow,yellow,1,889.5,yellowYELLOW,155.519,193833.5,1045.019,1,28.415,231.211,434.021,202.838,405.635,608.431,PC50Con,yellow
1,pro,stp,2,DMCC8760894,pro_stp_run2_DMCC8760894,PURPLE,InCon,bias,blue,3600,197744,37425,28,blue,blue,blue,blue,1,899.5,bluePURPLE,160.319,198643.5,1059.819,1,28.415,231.211,434.021,202.838,405.635,608.431,biasInCon,blue
1,pro,stp,2,DMCC8760894,pro_stp_run2_DMCC8760894,BLUE,Con,bias,blue,1200,203744,37425,29,blue,blue,blue,blue,1,718,blueBLUE,166.319,204462,884.319,1,28.415,231.211,434.021,202.838,405.635,608.431,biasCon,blue
1,pro,stp,2,DMCC8760894,pro_stp_run2_DMCC8760894,PINK,Con,PC50,pink,3600,207344,37425,30,pink,pink,pink,pink,1,883,pinkPINK,169.919,208227,1052.919,1,28.415,231.211,434.021,202.838,405.635,608.431,PC50Con,pink
1,pro,stp,2,DMCC8760894,pro_stp_run2_DMCC8760894,BLACK,Con,PC50,black,1200,213344,37425,31,black,black,black,black,1,949.5,blackBLACK,175.919,214293.5,1125.419,1,28.415,231.211,434.021,202.838,405.635,608.431,PC50Con,black
1,pro,stp,2,DMCC8760894,pro_stp_run2_DMCC8760894,BLACK,Con,PC50,black,3600,216944,37425,32,black,black,black,black,1,733,blackBLACK,179.519,217677,912.519,1,28.415,231.211,434.021,202.838,405.635,608.431,PC50Con,black
1,pro,stp,2,DMCC8760894,pro_stp_run2_DMCC8760894,BLACK,InCon,PC50,pink,2400,222944,37425,33,pink,pink,pink,pink,1,990.5,pinkBLACK,185.519,223934.5,1176.019,1,28.415,231.211,434.021,202.838,405.635,608.431,PC50InCon,pink
1,pro,stp,2,DMCC8760894,pro_stp_run2_DMCC8760894,WHITE,Con,bias,white,2400,227744,37425,34,no-response - too loud,no-response,white,"",0,1,whiteWHITE,190.319,227745,191.319,0,28.415,231.211,434.021,202.838,405.635,608.431,biasCon,""
1,pro,stp,2,DMCC8760894,pro_stp_run2_DMCC8760894,PINK,Con,PC50,pink,1200,232544,37425,35,pink,pink,pink,pink,1,861,pinkPINK,195.119,233405,1056.119,1,28.415,231.211,434.021,202.838,405.635,608.431,PC50Con,pink
1,pro,stp,2,DMCC8760894,pro_stp_run2_DMCC8760894,BLUE,InCon,bias,white,2400,236143,37425,36,white,white,white,white,1,1103.5,whiteBLUE,198.718,237246.5,1302.218,1,28.415,231.211,434.021,202.838,405.635,608.431,biasInCon,white
1,pro,stp,2,DMCC8760894,pro_stp_run2_DMCC8760894,PURPLE,InCon,bias,red,3600,270943,37425,37,red,red,red,red,1,810.5,redPURPLE,233.518,271753.5,1044.018,1,28.415,231.211,434.021,202.838,405.635,608.431,biasInCon,red
1,pro,stp,2,DMCC8760894,pro_stp_run2_DMCC8760894,PURPLE,InCon,bias,blue,2400,276943,37425,38,blue,blue,blue,blue,1,843.5,bluePURPLE,239.518,277786.5,1083.018,1,28.415,231.211,434.021,202.838,405.635,608.431,biasInCon,blue
1,pro,stp,2,DMCC8760894,pro_stp_run2_DMCC8760894,BLACK,InCon,PC50,pink,2400,281743,37425,39,pink,pink,pink,pink,1,809.5,pinkBLACK,244.318,282552.5,1053.818,1,28.415,231.211,434.021,202.838,405.635,608.431,PC50InCon,pink
1,pro,stp,2,DMCC8760894,pro_stp_run2_DMCC8760894,GREEN,InCon,PC50,black,3600,286543,37425,40,black,black,black,black,1,940.5,blackGREEN,249.118,287483.5,1189.618,1,28.415,231.211,434.021,202.838,405.635,608.431,PC50InCon,black
1,pro,stp,2,DMCC8760894,pro_stp_run2_DMCC8760894,RED,Con,bias,red,1200,292542,37425,41,red,red,red,red,1,823.5,redRED,255.117,293365.5,1078.617,1,28.415,231.211,434.021,202.838,405.635,608.431,biasCon,red
1,pro,stp,2,DMCC8760894,pro_stp_run2_DMCC8760894,RED,InCon,bias,white,2400,296142,37425,42,white,white,white,white,1,974.5,whiteRED,258.717,297116.5,1233.217,1,28.415,231.211,434.021,202.838,405.635,608.431,biasInCon,white
1,pro,stp,2,DMCC8760894,pro_stp_run2_DMCC8760894,PINK,Con,PC50,pink,3600,300942,37425,43,pink,pink,pink,pink,1,699,pinkPINK,263.517,301641,962.517,1,28.415,231.211,434.021,202.838,405.635,608.431,PC50Con,pink
1,pro,stp,2,DMCC8760894,pro_stp_run2_DMCC8760894,YELLOW,Con,PC50,yellow,2400,306942,37425,44,yellow,yellow,yellow,yellow,1,802,yellowYELLOW,269.517,307744,1071.517,1,28.415,231.211,434.021,202.838,405.635,608.431,PC50Con,yellow
1,pro,stp,2,DMCC8760894,pro_stp_run2_DMCC8760894,RED,InCon,bias,blue,1200,311742,37425,45,blue,blue,blue,blue,1,817.5,blueRED,274.317,312559.5,1091.817,1,28.415,231.211,434.021,202.838,405.635,608.431,biasInCon,blue
1,pro,stp,2,DMCC8760894,pro_stp_run2_DMCC8760894,PURPLE,Con,bias,purple,1200,315342,37425,46,purple,purple,purple,purple,1,898,purplePURPLE,277.917,316240,1175.917,1,28.415,231.211,434.021,202.838,405.635,608.431,biasCon,purple
1,pro,stp,2,DMCC8760894,pro_stp_run2_DMCC8760894,PINK,InCon,PC50,green,3600,318942,37425,47,green,green,green,green,1,859.5,greenPINK,281.517,319801.5,1141.017,1,28.415,231.211,434.021,202.838,405.635,608.431,PC50InCon,green
1,pro,stp,2,DMCC8760894,pro_stp_run2_DMCC8760894,BLUE,InCon,bias,red,1200,324942,37425,48,red,red,red,red,1,1137.5,redBLUE,287.517,326079.5,1425.017,1,28.415,231.211,434.021,202.838,405.635,608.431,biasInCon,red
1,pro,stp,2,DMCC8760894,pro_stp_run2_DMCC8760894,WHITE,Con,bias,white,1200,328542,37425,49,white,white,white,white,1,978,whiteWHITE,291.117,329520,1269.117,1,28.415,231.211,434.021,202.838,405.635,608.431,biasCon,white
1,pro,stp,2,DMCC8760894,pro_stp_run2_DMCC8760894,PINK,Con,PC50,pink,2400,332142,37425,50,pink,pink,pink,pink,1,903.5,pinkPINK,294.717,333045.5,1198.217,1,28.415,231.211,434.021,202.838,405.635,608.431,PC50Con,pink
1,pro,stp,2,DMCC8760894,pro_stp_run2_DMCC8760894,BLACK,Con,PC50,black,3600,336942,37425,51,black,black,black,black,1,878,blackBLACK,299.517,337820,1177.517,1,28.415,231.211,434.021,202.838,405.635,608.431,PC50Con,black
1,pro,stp,2,DMCC8760894,pro_stp_run2_DMCC8760894,WHITE,Con,bias,white,1200,342942,37425,52,white,white,white,white,1,850.5,whiteWHITE,305.517,343792.5,1156.017,1,28.415,231.211,434.021,202.838,405.635,608.431,biasCon,white
1,pro,stp,2,DMCC8760894,pro_stp_run2_DMCC8760894,WHITE,InCon,bias,blue,2400,346542,37425,53,blue,blue-slighty distored audio,blue,blue,1,875,blueWHITE,309.117,347417,1184.117,1,28.415,231.211,434.021,202.838,405.635,608.431,biasInCon,blue
1,pro,stp,2,DMCC8760894,pro_stp_run2_DMCC8760894,WHITE,InCon,bias,red,2400,351341,37425,54,red,red,red,red,1,741,redWHITE,313.916,352082,1054.916,1,28.415,231.211,434.021,202.838,405.635,608.431,biasInCon,red
1,pro,stp,2,DMCC8760894,pro_stp_run2_DMCC8760894,PURPLE,InCon,bias,white,3600,356141,37425,55,white,white,white,white,1,729,whitePURPLE,318.716,356870,1047.716,1,28.415,231.211,434.021,202.838,405.635,608.431,biasInCon,white
1,pro,stp,2,DMCC8760894,pro_stp_run2_DMCC8760894,YELLOW,InCon,PC50,green,3600,362141,37425,56,green,green,green,green,1,787.5,greenYELLOW,324.716,362928.5,1112.216,1,28.415,231.211,434.021,202.838,405.635,608.431,PC50InCon,green
1,pro,stp,2,DMCC8760894,pro_stp_run2_DMCC8760894,WHITE,InCon,bias,blue,3600,368141,37425,57,blue,blue,blue,blue,1,912,blueWHITE,330.716,369053,1242.716,1,28.415,231.211,434.021,202.838,405.635,608.431,biasInCon,blue
1,pro,stp,2,DMCC8760894,pro_stp_run2_DMCC8760894,BLUE,Con,bias,blue,2400,374141,37425,58,blue,blue,blue,blue,1,1185.5,blueBLUE,336.716,375326.5,1522.216,1,28.415,231.211,434.021,202.838,405.635,608.431,biasCon,blue
1,pro,stp,2,DMCC8760894,pro_stp_run2_DMCC8760894,BLUE,InCon,bias,purple,1200,378941,37425,59,purple,purple,purple,purple,1,975.5,purpleBLUE,341.516,379916.5,1317.016,1,28.415,231.211,434.021,202.838,405.635,608.431,biasInCon,purple
1,pro,stp,2,DMCC8760894,pro_stp_run2_DMCC8760894,GREEN,Con,PC50,green,1200,382541,37425,60,green,green,green,green,1,1138,greenGREEN,345.116,383679,1483.116,1,28.415,231.211,434.021,202.838,405.635,608.431,PC50Con,green
1,pro,stp,2,DMCC8760894,pro_stp_run2_DMCC8760894,PURPLE,InCon,bias,red,2400,386141,37425,61,red,red,red,red,1,847.5,redPURPLE,348.716,386988.5,1196.216,1,28.415,231.211,434.021,202.838,405.635,608.431,biasInCon,red
1,pro,stp,2,DMCC8760894,pro_stp_run2_DMCC8760894,PINK,InCon,PC50,yellow,3600,390941,37425,62,yellow,yellow,yellow,yellow,1,936,yellowPINK,353.516,391877,1289.516,1,28.415,231.211,434.021,202.838,405.635,608.431,PC50InCon,yellow
1,pro,stp,2,DMCC8760894,pro_stp_run2_DMCC8760894,BLACK,Con,PC50,black,3600,396941,37425,63,black,black,black,black,1,653,blackBLACK,359.516,397594,1012.516,1,28.415,231.211,434.021,202.838,405.635,608.431,PC50Con,black
1,pro,stp,2,DMCC8760894,pro_stp_run2_DMCC8760894,RED,Con,bias,red,1200,402941,37425,64,red,red,red,red,1,829,redRED,365.516,403770,1194.516,1,28.415,231.211,434.021,202.838,405.635,608.431,biasCon,red
1,pro,stp,2,DMCC8760894,pro_stp_run2_DMCC8760894,RED,InCon,bias,white,1200,406540,37425,65,white,white,white,white,1,1001,whiteRED,369.115,407541,1370.115,1,28.415,231.211,434.021,202.838,405.635,608.431,biasInCon,white
1,pro,stp,2,DMCC8760894,pro_stp_run2_DMCC8760894,PURPLE,InCon,bias,white,2400,410140,37425,66,white,white,white,white,1,812.5,whitePURPLE,372.715,410952.5,1185.215,1,28.415,231.211,434.021,202.838,405.635,608.431,biasInCon,white
1,pro,stp,2,DMCC8760894,pro_stp_run2_DMCC8760894,BLUE,InCon,bias,white,3600,414940,37425,67,white,white,white,white,1,795.5,whiteBLUE,377.515,415735.5,1173.015,1,28.415,231.211,434.021,202.838,405.635,608.431,biasInCon,white
1,pro,stp,2,DMCC8760894,pro_stp_run2_DMCC8760894,RED,InCon,bias,purple,2400,420940,37425,68,purple,purple,purple,purple,1,857.5,purpleRED,383.515,421797.5,1241.015,1,28.415,231.211,434.021,202.838,405.635,608.431,biasInCon,purple
1,pro,stp,2,DMCC8760894,pro_stp_run2_DMCC8760894,BLUE,InCon,bias,red,1200,425740,37425,69,red,red,red,red,1,950.5,redBLUE,388.315,426690.5,1338.815,1,28.415,231.211,434.021,202.838,405.635,608.431,biasInCon,red
1,pro,stp,2,DMCC8760894,pro_stp_run2_DMCC8760894,WHITE,InCon,bias,purple,3600,429340,37425,70,purple,purple,purple,purple,1,765.5,purpleWHITE,391.915,430105.5,1157.415,1,28.415,231.211,434.021,202.838,405.635,608.431,biasInCon,purple
1,pro,stp,2,DMCC8760894,pro_stp_run2_DMCC8760894,BLACK,InCon,PC50,yellow,1200,435340,37425,71,yellow,yellow,yellow,yellow,1,812.5,yellowBLACK,397.915,436152.5,1210.415,1,28.415,231.211,434.021,202.838,405.635,608.431,PC50InCon,yellow
1,pro,stp,2,DMCC8760894,pro_stp_run2_DMCC8760894,BLUE,InCon,bias,purple,2400,438940,37425,72,purple,purple,purple,purple,1,1017,purpleBLUE,401.515,439957,1418.515,1,28.415,231.211,434.021,202.838,405.635,608.431,biasInCon,purple
1,pro,stp,2,DMCC8760894,pro_stp_run2_DMCC8760894,PURPLE,InCon,bias,white,2400,473739,37425,73,white,white,white,white,1,768,whitePURPLE,436.314,474507,1204.314,1,28.415,231.211,434.021,202.838,405.635,608.431,biasInCon,white
1,pro,stp,2,DMCC8760894,pro_stp_run2_DMCC8760894,RED,InCon,bias,white,2400,478539,37425,74,white,white,white,white,1,645,whiteRED,441.114,479184,1086.114,1,28.415,231.211,434.021,202.838,405.635,608.431,biasInCon,white
1,pro,stp,2,DMCC8760894,pro_stp_run2_DMCC8760894,PINK,InCon,PC50,green,1200,483339,37425,75,green,green,green,green,1,878,greenPINK,445.914,484217,1323.914,1,28.415,231.211,434.021,202.838,405.635,608.431,PC50InCon,green
1,pro,stp,2,DMCC8760894,pro_stp_run2_DMCC8760894,GREEN,InCon,PC50,black,3600,486939,37425,76,black,black,black,black,1,789,blackGREEN,449.514,487728,1238.514,1,28.415,231.211,434.021,202.838,405.635,608.431,PC50InCon,black
1,pro,stp,2,DMCC8760894,pro_stp_run2_DMCC8760894,PINK,InCon,PC50,yellow,1200,492939,37425,77,yellow,yellow,yellow,yellow,1,789,yellowPINK,455.514,493728,1244.514,1,28.415,231.211,434.021,202.838,405.635,608.431,PC50InCon,yellow
1,pro,stp,2,DMCC8760894,pro_stp_run2_DMCC8760894,PURPLE,InCon,bias,red,1200,496539,37425,78,red,red,red,red,1,692.5,redPURPLE,459.114,497231.5,1151.614,1,28.415,231.211,434.021,202.838,405.635,608.431,biasInCon,red
1,pro,stp,2,DMCC8760894,pro_stp_run2_DMCC8760894,WHITE,InCon,bias,purple,2400,500139,37425,79,purple,purple,purple,purple,1,802.5,purpleWHITE,462.714,500941.5,1265.214,1,28.415,231.211,434.021,202.838,405.635,608.431,biasInCon,purple
1,pro,stp,2,DMCC8760894,pro_stp_run2_DMCC8760894,BLUE,InCon,bias,red,3600,504939,37425,80,red,red,red,red,1,594.5,redBLUE,467.514,505533.5,1062.014,1,28.415,231.211,434.021,202.838,405.635,608.431,biasInCon,red
1,pro,stp,2,DMCC8760894,pro_stp_run2_DMCC8760894,BLUE,Con,bias,blue,1200,510939,37425,81,blue,blue,blue,blue,1,727.5,blueBLUE,473.514,511666.5,1201.014,1,28.415,231.211,434.021,202.838,405.635,608.431,biasCon,blue
1,pro,stp,2,DMCC8760894,pro_stp_run2_DMCC8760894,RED,InCon,bias,white,3600,514539,37425,82,white,white,white,white,1,904.5,whiteRED,477.114,515443.5,1381.614,1,28.415,231.211,434.021,202.838,405.635,608.431,biasInCon,white
1,pro,stp,2,DMCC8760894,pro_stp_run2_DMCC8760894,BLUE,InCon,bias,white,3600,520539,37425,83,white,white,white,white,1,727.5,whiteBLUE,483.114,521266.5,1210.614,1,28.415,231.211,434.021,202.838,405.635,608.431,biasInCon,white
1,pro,stp,2,DMCC8760894,pro_stp_run2_DMCC8760894,WHITE,InCon,bias,blue,2400,526538,37425,84,blue,blue,blue,blue,1,680,blueWHITE,489.113,527218,1169.113,1,28.415,231.211,434.021,202.838,405.635,608.431,biasInCon,blue
1,pro,stp,2,DMCC8760894,pro_stp_run2_DMCC8760894,PINK,Con,PC50,pink,3600,531338,37425,85,pink,pink,pink,pink,1,772,pinkPINK,493.913,532110,1265.913,1,28.415,231.211,434.021,202.838,405.635,608.431,PC50Con,pink
1,pro,stp,2,DMCC8760894,pro_stp_run2_DMCC8760894,BLUE,InCon,bias,purple,3600,537338,37425,86,purple,purple,purple,purple,1,738,purpleBLUE,499.913,538076,1237.913,1,28.415,231.211,434.021,202.838,405.635,608.431,biasInCon,purple
1,pro,stp,2,DMCC8760894,pro_stp_run2_DMCC8760894,PURPLE,Con,bias,purple,2400,543338,37425,87,purple,purple,purple,purple,1,787,purplePURPLE,505.913,544125,1292.913,1,28.415,231.211,434.021,202.838,405.635,608.431,biasCon,purple
1,pro,stp,2,DMCC8760894,pro_stp_run2_DMCC8760894,RED,Con,bias,red,3600,548138,37425,88,red,red,red,red,1,846,redRED,510.713,548984,1356.713,1,28.415,231.211,434.021,202.838,405.635,608.431,biasCon,red
1,pro,stp,2,DMCC8760894,pro_stp_run2_DMCC8760894,PURPLE,InCon,bias,blue,1200,554138,37425,89,blue,blue,blue,blue,1,822.5,bluePURPLE,516.713,554960.5,1339.213,1,28.415,231.211,434.021,202.838,405.635,608.431,biasInCon,blue
1,pro,stp,2,DMCC8760894,pro_stp_run2_DMCC8760894,BLACK,Con,PC50,black,3600,557738,37425,90,black,black,black,black,1,1098.5,blackBLACK,520.313,558836.5,1618.813,1,28.415,231.211,434.021,202.838,405.635,608.431,PC50Con,black
1,pro,stp,2,DMCC8760894,pro_stp_run2_DMCC8760894,GREEN,Con,PC50,green,2400,563738,37425,91,green,green,green,green,1,1663,greenGREEN,526.313,565401,2189.313,1,28.415,231.211,434.021,202.838,405.635,608.431,PC50Con,green
1,pro,stp,2,DMCC8760894,pro_stp_run2_DMCC8760894,RED,InCon,bias,blue,2400,568538,37425,92,blue,blue,blue,blue,1,977.5,blueRED,531.113,569515.5,1508.613,1,28.415,231.211,434.021,202.838,405.635,608.431,biasInCon,blue
1,pro,stp,2,DMCC8760894,pro_stp_run2_DMCC8760894,YELLOW,InCon,PC50,green,1200,573338,37425,93,green,green,green,green,1,1216,greenYELLOW,535.913,574554,1751.913,1,28.415,231.211,434.021,202.838,405.635,608.431,PC50InCon,green
1,pro,stp,2,DMCC8760894,pro_stp_run2_DMCC8760894,PURPLE,InCon,bias,white,1200,576938,37425,94,white,white,white,white,1,945,whitePURPLE,539.513,577883,1484.513,1,28.415,231.211,434.021,202.838,405.635,608.431,biasInCon,white
1,pro,stp,2,DMCC8760894,pro_stp_run2_DMCC8760894,WHITE,Con,bias,white,1200,580537,37425,95,white,white,white,white,1,848,whiteWHITE,543.112,581385,1391.112,1,28.415,231.211,434.021,202.838,405.635,608.431,biasCon,white
1,pro,stp,2,DMCC8760894,pro_stp_run2_DMCC8760894,YELLOW,Con,PC50,yellow,2400,584137,37425,96,yellow,yellow,yellow,yellow,1,815.5,yellowYELLOW,546.712,584952.5,1362.212,1,28.415,231.211,434.021,202.838,405.635,608.431,PC50Con,yellow
1,pro,stp,2,DMCC8760894,pro_stp_run2_DMCC8760894,PURPLE,InCon,bias,red,3600,588937,37425,97,red,red,red,red,1,1884.5,redPURPLE,551.512,590821.5,2436.012,1,28.415,231.211,434.021,202.838,405.635,608.431,biasInCon,red
1,pro,stp,2,DMCC8760894,pro_stp_run2_DMCC8760894,PINK,Con,PC50,pink,1200,594937,37425,98,pink,pink,pink,pink,1,872.5,pinkPINK,557.512,595809.5,1430.012,1,28.415,231.211,434.021,202.838,405.635,608.431,PC50Con,pink
1,pro,stp,2,DMCC8760894,pro_stp_run2_DMCC8760894,BLUE,InCon,bias,red,3600,598537,37425,99,red,red,red,red,1,946.5,redBLUE,561.112,599483.5,1507.612,1,28.415,231.211,434.021,202.838,405.635,608.431,biasInCon,red
1,pro,stp,2,DMCC8760894,pro_stp_run2_DMCC8760894,WHITE,InCon,bias,blue,1200,604537,37425,100,blue,blue,blue,blue,1,2325.5,blueWHITE,567.112,606862.5,2892.612,1,28.415,231.211,434.021,202.838,405.635,608.431,biasInCon,blue
1,pro,stp,2,DMCC8760894,pro_stp_run2_DMCC8760894,BLACK,InCon,PC50,yellow,2400,608137,37425,101,yellow,yellow,yellow,yellow,1,981.5,yellowBLACK,570.712,609118.5,1552.212,1,28.415,231.211,434.021,202.838,405.635,608.431,PC50InCon,yellow
1,pro,stp,2,DMCC8760894,pro_stp_run2_DMCC8760894,WHITE,InCon,bias,red,1200,612937,37425,102,red,red,red,red,1,941,redWHITE,575.512,613878,1516.512,1,28.415,231.211,434.021,202.838,405.635,608.431,biasInCon,red
1,pro,stp,2,DMCC8760894,pro_stp_run2_DMCC8760894,RED,Con,bias,red,2400,616537,37425,103,red,red,red,red,1,963,redRED,579.112,617500,1542.112,1,28.415,231.211,434.021,202.838,405.635,608.431,biasCon,red
1,pro,stp,2,DMCC8760894,pro_stp_run2_DMCC8760894,RED,InCon,bias,purple,2400,621337,37425,104,purple,purple,purple,purple,1,944,purpleRED,583.912,622281,1527.912,1,28.415,231.211,434.021,202.838,405.635,608.431,biasInCon,purple
1,pro,stp,2,DMCC8760894,pro_stp_run2_DMCC8760894,BLUE,InCon,bias,purple,1200,626137,37425,105,purple,purple,purple,purple,1,746,purpleBLUE,588.712,626883,1334.712,1,28.415,231.211,434.021,202.838,405.635,608.431,biasInCon,purple
1,pro,stp,2,DMCC8760894,pro_stp_run2_DMCC8760894,BLACK,InCon,PC50,pink,3600,629737,37425,106,pink,pink,pink,pink,1,993.5,pinkBLACK,592.312,630730.5,1585.812,1,28.415,231.211,434.021,202.838,405.635,608.431,PC50InCon,pink
1,pro,stp,2,DMCC8760894,pro_stp_run2_DMCC8760894,BLACK,Con,PC50,black,3600,635737,37425,107,black,black,black,black,1,722.5,blackBLACK,598.312,636459.5,1320.812,1,28.415,231.211,434.021,202.838,405.635,608.431,PC50Con,black
1,pro,stp,2,DMCC8760894,pro_stp_run2_DMCC8760894,WHITE,Con,bias,white,2400,641736,37425,108,white,white,white,white,1,815,whiteWHITE,604.311,642551,1419.311,1,28.415,231.211,434.021,202.838,405.635,608.431,biasCon,white
1,rea,stp,1,DMCC8760894,rea_stp_run1_DMCC8760894,BLUE,InCon,bias,white,1200,83721,52999,1,white,white,white,white,1,752,whiteBLUE,30.722,84473,782.722,1,28.415,250.413,473.611,222.027,445.225,666.036,biasInCon,white
1,rea,stp,1,DMCC8760894,rea_stp_run1_DMCC8760894,RED,Con,bias,red,1200,87321,52999,2,red,red,red,red,1,638.5,redRED,34.322,87959.5,672.822,1,28.415,250.413,473.611,222.027,445.225,666.036,biasCon,red
1,rea,stp,1,DMCC8760894,rea_stp_run1_DMCC8760894,WHITE,InCon,bias,purple,2400,90921,52999,3,purple,purple,purple,purple,1,630.5,purpleWHITE,37.922,91551.5,668.422,1,28.415,250.413,473.611,222.027,445.225,666.036,biasInCon,purple
1,rea,stp,1,DMCC8760894,rea_stp_run1_DMCC8760894,WHITE,Con,bias,white,3600,95720,52999,4,white,white,white,white,1,633,whiteWHITE,42.721,96353,675.721,1,28.415,250.413,473.611,222.027,445.225,666.036,biasCon,white
1,rea,stp,1,DMCC8760894,rea_stp_run1_DMCC8760894,BLUE,Con,bias,blue,2400,101720,52999,5,blue,blue,blue,blue,1,667.5,blueBLUE,48.721,102387.5,716.221,1,28.415,250.413,473.611,222.027,445.225,666.036,biasCon,blue
1,rea,stp,1,DMCC8760894,rea_stp_run1_DMCC8760894,BLUE,Con,bias,blue,2400,106520,52999,6,blue,blue,blue,blue,1,535,blueBLUE,53.521,107055,588.521,1,28.415,250.413,473.611,222.027,445.225,666.036,biasCon,blue
1,rea,stp,1,DMCC8760894,rea_stp_run1_DMCC8760894,BLACK,Con,PC50,black,3600,111320,52999,7,black,black,black,black,1,556.5,blackBLACK,58.321,111876.5,614.821,1,28.415,250.413,473.611,222.027,445.225,666.036,PC50Con,black
1,rea,stp,1,DMCC8760894,rea_stp_run1_DMCC8760894,PURPLE,Con,bias,purple,3600,117320,52999,8,purple,purple,purple,purple,1,608,purplePURPLE,64.321,117928,672.321,1,28.415,250.413,473.611,222.027,445.225,666.036,biasCon,purple
1,rea,stp,1,DMCC8760894,rea_stp_run1_DMCC8760894,PINK,Con,PC50,pink,1200,123320,52999,9,pink,pink,pink,pink,1,756,pinkPINK,70.321,124076,826.321,1,28.415,250.413,473.611,222.027,445.225,666.036,PC50Con,pink
1,rea,stp,1,DMCC8760894,rea_stp_run1_DMCC8760894,PINK,InCon,PC50,yellow,1200,126920,52999,10,yellow,yellow,yellow,yellow,1,1387,yellowPINK,73.921,128307,1460.921,1,28.415,250.413,473.611,222.027,445.225,666.036,PC50InCon,yellow
1,rea,stp,1,DMCC8760894,rea_stp_run1_DMCC8760894,WHITE,Con,bias,white,2400,130520,52999,11,white,white,white,white,1,849.5,whiteWHITE,77.521,131369.5,927.021,1,28.415,250.413,473.611,222.027,445.225,666.036,biasCon,white
1,rea,stp,1,DMCC8760894,rea_stp_run1_DMCC8760894,BLUE,InCon,bias,purple,3600,135320,52999,12,purple,purple,purple,purple,1,622,purpleBLUE,82.321,135942,704.321,1,28.415,250.413,473.611,222.027,445.225,666.036,biasInCon,purple
1,rea,stp,1,DMCC8760894,rea_stp_run1_DMCC8760894,RED,Con,bias,red,2400,141320,52999,13,red,red,red,red,1,743,redRED,88.321,142063,831.321,1,28.415,250.413,473.611,222.027,445.225,666.036,biasCon,red
1,rea,stp,1,DMCC8760894,rea_stp_run1_DMCC8760894,BLUE,Con,bias,blue,3600,146120,52999,14,blue,blue,blue,blue,1,605.5,blueBLUE,93.121,146725.5,698.621,1,28.415,250.413,473.611,222.027,445.225,666.036,biasCon,blue
1,rea,stp,1,DMCC8760894,rea_stp_run1_DMCC8760894,GREEN,Con,PC50,green,1200,152120,52999,15,green,green,green,green,1,714.5,greenGREEN,99.121,152834.5,813.621,1,28.415,250.413,473.611,222.027,445.225,666.036,PC50Con,green
1,rea,stp,1,DMCC8760894,rea_stp_run1_DMCC8760894,PURPLE,Con,bias,purple,2400,155720,52999,16,purple,purple,purple,purple,1,677,purplePURPLE,102.721,156397,779.721,1,28.415,250.413,473.611,222.027,445.225,666.036,biasCon,purple
1,rea,stp,1,DMCC8760894,rea_stp_run1_DMCC8760894,RED,Con,bias,red,3600,160520,52999,17,red,red- unsure,red,red,1,561.5,redRED,107.521,161081.5,669.021,1,28.415,250.413,473.611,222.027,445.225,666.036,biasCon,red
1,rea,stp,1,DMCC8760894,rea_stp_run1_DMCC8760894,BLUE,Con,bias,blue,3600,166520,52999,18,blue,blue,blue,blue,1,635.5,blueBLUE,113.521,167155.5,749.021,1,28.415,250.413,473.611,222.027,445.225,666.036,biasCon,blue
1,rea,stp,1,DMCC8760894,rea_stp_run1_DMCC8760894,YELLOW,Con,PC50,yellow,2400,172520,52999,19,yellow,yellow,yellow,yellow,1,587.5,yellowYELLOW,119.521,173107.5,707.021,1,28.415,250.413,473.611,222.027,445.225,666.036,PC50Con,yellow
1,rea,stp,1,DMCC8760894,rea_stp_run1_DMCC8760894,RED,InCon,bias,purple,1200,177320,52999,20,purple,purple,purple,purple,1,708.5,purpleRED,124.321,178028.5,832.821,1,28.415,250.413,473.611,222.027,445.225,666.036,biasInCon,purple
1,rea,stp,1,DMCC8760894,rea_stp_run1_DMCC8760894,RED,Con,bias,red,1200,180920,52999,21,red-muffled,red- muffled,red,red,1,662.5,redRED,127.921,181582.5,790.421,1,28.415,250.413,473.611,222.027,445.225,666.036,biasCon,red
