wave,session,task,run,subj,name,stimuli,number,letter,trial.type,cue,number.resp,letter.resp,award,switch,cue.color,target.color,target.color.orig,incentive,iti,acc,rt,resp,cresp,time.cue.onset.abs,time.target.onset.abs,time.rt.abs,time.scan.start,trial.num,time.cue.onset,time.target.onset,time.rt,time.block1.on,time.block2.on,time.block3.on,time.block1.off,time.block2.off,time.block3.off,trialtype
1,bas,cue,1,DMCC8760894,bas_cue_run1_DMCC8760894,4D,e,c,InCon,n,1,2,,,red,black,green,Inc,3200,1,597,1,1,124918,129411,130008,93799,1,31.119,35.612,36.209,28.413,274.424,520.421,246.025,492.023,738.021,InConInc
1,bas,cue,1,DMCC8760894,bas_cue_run1_DMCC8760894,2A,e,v,Con,n,1,1,,stay,red,black,black,NoInc,2000,1,853,1,1,136918,141411,142264,93799,2,43.119,47.612,48.465,28.413,274.424,520.421,246.025,492.023,738.021,ConNoInc
1,bas,cue,1,DMCC8760894,bas_cue_run1_DMCC8760894,D4,e,c,InCon,l,1,2,,switch,red,black,green,Inc,4400,1,1434,2,2,147717,152210,153644,93799,3,53.918,58.411,59.845,28.413,274.424,520.421,246.025,492.023,738.021,InConInc
1,bas,cue,1,DMCC8760894,bas_cue_run1_DMCC8760894,E3,o,v,InCon,l,2,1,,stay,red,black,green,Inc,2000,1,860,1,1,160916,165422,166282,93799,4,67.117,71.623,72.483,28.413,274.424,520.421,246.025,492.023,738.021,InConInc
1,bas,cue,1,DMCC8760894,bas_cue_run1_DMCC8760894,B2,e,c,InCon,n,1,2,,switch,red,black,black,NoInc,3200,1,761,1,1,171715,176222,176983,93799,5,77.916,82.423,83.184,28.413,274.424,520.421,246.025,492.023,738.021,InConNoInc
1,bas,cue,1,DMCC8760894,bas_cue_run1_DMCC8760894,1A,o,v,InCon,l,2,1,,switch,red,black,black,NoInc,4400,1,760,1,1,183715,188221,188981,93799,6,89.916,94.422,95.182,28.413,274.424,520.421,246.025,492.023,738.021,InConNoInc
1,bas,cue,1,DMCC8760894,bas_cue_run1_DMCC8760894,1B,o,c,Con,l,2,2,,stay,red,black,black,NoInc,2000,1,1257,2,2,196914,201420,202677,93799,7,103.115,107.621,108.878,28.413,274.424,520.421,246.025,492.023,738.021,ConNoInc
1,bas,cue,1,DMCC8760894,bas_cue_run1_DMCC8760894,6I,e,v,Con,n,1,1,,switch,red,black,green,Inc,3200,1,734,1,1,207713,212219,212953,93799,8,113.914,118.42,119.154,28.413,274.424,520.421,246.025,492.023,738.021,ConInc
1,bas,cue,1,DMCC8760894,bas_cue_run1_DMCC8760894,I6,e,v,Con,l,1,1,,switch,red,black,green,Inc,4400,1,992,1,1,219712,224219,225211,93799,9,125.913,130.42,131.412,28.413,274.424,520.421,246.025,492.023,738.021,ConInc
1,bas,cue,1,DMCC8760894,bas_cue_run1_DMCC8760894,I6,e,v,Con,n,1,1,,switch,red,black,black,NoInc,3200,1,1109,1,1,232911,237418,238527,93799,10,139.112,143.619,144.728,28.413,274.424,520.421,246.025,492.023,738.021,ConNoInc
1,bas,cue,1,DMCC8760894,bas_cue_run1_DMCC8760894,D4,e,c,InCon,n,1,2,,stay,red,black,green,Inc,3200,1,896,1,1,244911,249417,250313,93799,11,151.112,155.618,156.514,28.413,274.424,520.421,246.025,492.023,738.021,InConInc
1,bas,cue,1,DMCC8760894,bas_cue_run1_DMCC8760894,1B,o,c,Con,n,2,2,,stay,red,black,black,NoInc,2000,1,1196,2,2,256910,261416,262612,93799,12,163.111,167.617,168.813,28.413,274.424,520.421,246.025,492.023,738.021,ConNoInc
1,bas,cue,1,DMCC8760894,bas_cue_run1_DMCC8760894,A2,e,v,Con,n,1,1,,stay,red,black,black,NoInc,2000,1,989,1,1,267722,272216,273205,93799,13,173.923,178.417,179.406,28.413,274.424,520.421,246.025,492.023,738.021,ConNoInc
1,bas,cue,1,DMCC8760894,bas_cue_run1_DMCC8760894,B1,o,c,Con,n,2,2,,stay,red,black,black,NoInc,4400,1,1066,2,2,278522,283015,284081,93799,14,184.723,189.216,190.282,28.413,274.424,520.421,246.025,492.023,738.021,ConNoInc
1,bas,cue,1,DMCC8760894,bas_cue_run1_DMCC8760894,H5,o,c,Con,l,2,2,,switch,red,black,black,NoInc,4400,0,1292,1,2,291721,296214,297506,93799,15,197.922,202.415,203.707,28.413,274.424,520.421,246.025,492.023,738.021,ConNoInc
1,bas,cue,1,DMCC8760894,bas_cue_run1_DMCC8760894,A2,e,v,Con,l,1,1,,stay,red,black,black,NoInc,4400,1,1209,1,1,304920,309413,310622,93799,16,211.121,215.614,216.823,28.413,274.424,520.421,246.025,492.023,738.021,ConNoInc
1,bas,cue,1,DMCC8760894,bas_cue_run1_DMCC8760894,5H,o,c,Con,l,2,2,,stay,red,black,black,NoInc,2000,1,1226,2,2,318119,322612,323838,93799,17,224.32,228.813,230.039,28.413,274.424,520.421,246.025,492.023,738.021,ConNoInc
1,bas,cue,1,DMCC8760894,bas_cue_run1_DMCC8760894,B1,o,c,Con,l,2,2,,stay,red,black,black,NoInc,3200,1,1007,2,2,328919,333412,334419,93799,18,235.12,239.613,240.62,28.413,274.424,520.421,246.025,492.023,738.021,ConNoInc
1,bas,cue,1,DMCC8760894,bas_cue_run1_DMCC8760894,2A,e,v,Con,n,1,1,,,red,black,black,NoInc,3200,1,786,1,1,370916,375422,376208,93799,19,277.117,281.623,282.409,28.413,274.424,520.421,246.025,492.023,738.021,ConNoInc
1,bas,cue,1,DMCC8760894,bas_cue_run1_DMCC8760894,I6,e,v,Con,l,1,1,,switch,red,black,black,NoInc,3200,1,996,1,1,382915,387421,388417,93799,20,289.116,293.622,294.618,28.413,274.424,520.421,246.025,492.023,738.021,ConNoInc
1,bas,cue,1,DMCC8760894,bas_cue_run1_DMCC8760894,1B,o,c,Con,l,2,2,,stay,red,black,black,NoInc,4400,1,1433,2,2,394914,399421,400854,93799,21,301.115,305.622,307.055,28.413,274.424,520.421,246.025,492.023,738.021,ConNoInc
1,bas,cue,1,DMCC8760894,bas_cue_run1_DMCC8760894,5H,o,c,Con,l,2,2,,stay,red,black,black,NoInc,4400,1,1041,2,2,408113,412620,413661,93799,22,314.314,318.821,319.862,28.413,274.424,520.421,246.025,492.023,738.021,ConNoInc
1,bas,cue,1,DMCC8760894,bas_cue_run1_DMCC8760894,6I,e,v,Con,n,1,1,,switch,red,black,black,NoInc,3200,1,997,1,1,421313,425819,426816,93799,23,327.514,332.02,333.017,28.413,274.424,520.421,246.025,492.023,738.021,ConNoInc
1,bas,cue,1,DMCC8760894,bas_cue_run1_DMCC8760894,2A,e,v,Con,l,1,1,,switch,red,black,black,NoInc,4400,1,1022,1,1,433312,437818,438840,93799,24,339.513,344.019,345.041,28.413,274.424,520.421,246.025,492.023,738.021,ConNoInc
1,bas,cue,1,DMCC8760894,bas_cue_run1_DMCC8760894,A1,o,v,InCon,n,2,1,,switch,red,black,black,NoInc,2000,1,1304,2,2,446511,451017,452321,93799,25,352.712,357.218,358.522,28.413,274.424,520.421,246.025,492.023,738.021,InConNoInc
1,bas,cue,1,DMCC8760894,bas_cue_run1_DMCC8760894,D4,e,c,InCon,l,1,2,,switch,red,black,green,Inc,2000,0,1051,1,2,457310,461817,462868,93799,26,363.511,368.018,369.069,28.413,274.424,520.421,246.025,492.023,738.021,InConInc
1,bas,cue,1,DMCC8760894,bas_cue_run1_DMCC8760894,A2,e,v,Con,n,1,1,,switch,red,black,black,NoInc,2000,1,982,1,1,468110,472616,473598,93799,27,374.311,378.817,379.799,28.413,274.424,520.421,246.025,492.023,738.021,ConNoInc
1,bas,cue,1,DMCC8760894,bas_cue_run1_DMCC8760894,3E,o,v,InCon,n,2,1,,stay,red,black,green,Inc,2000,1,1301,2,2,478922,483415,484716,93799,28,385.123,389.616,390.917,28.413,274.424,520.421,246.025,492.023,738.021,InConInc
1,bas,cue,1,DMCC8760894,bas_cue_run1_DMCC8760894,5H,o,c,Con,n,2,2,,stay,red,black,green,Inc,4400,1,945,2,2,489722,494215,495160,93799,29,395.923,400.416,401.361,28.413,274.424,520.421,246.025,492.023,738.021,ConInc
1,bas,cue,1,DMCC8760894,bas_cue_run1_DMCC8760894,2A,e,v,Con,l,1,1,,switch,red,black,black,NoInc,3200,0,0,,1,502921,507414,0,93799,30,409.122,413.615,-93.799,28.413,274.424,520.421,246.025,492.023,738.021,ConNoInc
1,bas,cue,1,DMCC8760894,bas_cue_run1_DMCC8760894,3E,o,v,InCon,l,2,1,,stay,red,black,green,Inc,2000,1,1330,1,1,514920,519413,520743,93799,31,421.121,425.614,426.944,28.413,274.424,520.421,246.025,492.023,738.021,InConInc
1,bas,cue,1,DMCC8760894,bas_cue_run1_DMCC8760894,B1,o,c,Con,l,2,2,,stay,red,black,black,NoInc,4400,1,969,2,2,525719,530212,531181,93799,32,431.92,436.413,437.382,28.413,274.424,520.421,246.025,492.023,738.021,ConNoInc
1,bas,cue,1,DMCC8760894,bas_cue_run1_DMCC8760894,E3,o,v,InCon,n,2,1,,switch,red,black,green,Inc,3200,1,1175,2,2,538918,543411,544586,93799,33,445.119,449.612,450.787,28.413,274.424,520.421,246.025,492.023,738.021,InConInc
1,bas,cue,1,DMCC8760894,bas_cue_run1_DMCC8760894,E3,o,v,InCon,n,2,1,,stay,red,black,green,Inc,3200,1,1549,2,2,550918,555411,556960,93799,34,457.119,461.612,463.161,28.413,274.424,520.421,246.025,492.023,738.021,InConInc
1,bas,cue,1,DMCC8760894,bas_cue_run1_DMCC8760894,1B,o,c,Con,n,2,2,,stay,red,black,black,NoInc,2000,1,1368,2,2,562917,567410,568778,93799,35,469.118,473.611,474.979,28.413,274.424,520.421,246.025,492.023,738.021,ConNoInc
1,bas,cue,1,DMCC8760894,bas_cue_run1_DMCC8760894,2B,e,c,InCon,l,1,2,,switch,red,black,black,NoInc,4400,1,1041,2,2,573716,578223,579264,93799,36,479.917,484.424,485.465,28.413,274.424,520.421,246.025,492.023,738.021,InConNoInc
1,bas,cue,1,DMCC8760894,bas_cue_run1_DMCC8760894,2A,e,v,Con,n,1,1,,,red,black,black,NoInc,4400,1,774,1,1,616913,621420,622194,93799,37,523.114,527.621,528.395,28.413,274.424,520.421,246.025,492.023,738.021,ConNoInc
1,bas,cue,1,DMCC8760894,bas_cue_run1_DMCC8760894,2A,e,v,Con,l,1,1,,switch,red,black,black,NoInc,3200,1,1227,1,1,630113,634619,635846,93799,38,536.314,540.82,542.047,28.413,274.424,520.421,246.025,492.023,738.021,ConNoInc
1,bas,cue,1,DMCC8760894,bas_cue_run1_DMCC8760894,B1,o,c,Con,l,2,2,,stay,red,black,black,NoInc,3200,0,1654,1,2,642112,646618,648272,93799,39,548.313,552.819,554.473,28.413,274.424,520.421,246.025,492.023,738.021,ConNoInc
1,bas,cue,1,DMCC8760894,bas_cue_run1_DMCC8760894,1A,o,v,InCon,n,2,1,,switch,red,black,black,NoInc,4400,1,1431,2,2,654111,658617,660048,93799,40,560.312,564.818,566.249,28.413,274.424,520.421,246.025,492.023,738.021,InConNoInc
1,bas,cue,1,DMCC8760894,bas_cue_run1_DMCC8760894,3E,o,v,InCon,l,2,1,,switch,red,black,green,Inc,2000,1,1350,1,1,667310,671816,673166,93799,41,573.511,578.017,579.367,28.413,274.424,520.421,246.025,492.023,738.021,InConInc
1,bas,cue,1,DMCC8760894,bas_cue_run1_DMCC8760894,1B,o,c,Con,l,2,2,,stay,red,black,black,NoInc,3200,1,910,2,2,678123,682616,683526,93799,42,584.324,588.817,589.727,28.413,274.424,520.421,246.025,492.023,738.021,ConNoInc
1,bas,cue,1,DMCC8760894,bas_cue_run1_DMCC8760894,6I,e,v,Con,l,1,1,,stay,red,black,black,NoInc,4400,1,803,1,1,690122,694615,695418,93799,43,596.323,600.816,601.619,28.413,274.424,520.421,246.025,492.023,738.021,ConNoInc
1,bas,cue,1,DMCC8760894,bas_cue_run1_DMCC8760894,1B,o,c,Con,n,2,2,,switch,red,black,black,NoInc,2000,1,1874,2,2,703321,707814,709688,93799,44,609.522,614.015,615.889,28.413,274.424,520.421,246.025,492.023,738.021,ConNoInc
1,bas,cue,1,DMCC8760894,bas_cue_run1_DMCC8760894,E3,o,v,InCon,l,2,1,,switch,red,black,green,Inc,2000,1,983,1,1,714120,718613,719596,93799,45,620.321,624.814,625.797,28.413,274.424,520.421,246.025,492.023,738.021,InConInc
1,bas,cue,1,DMCC8760894,bas_cue_run1_DMCC8760894,4D,e,c,InCon,n,1,2,,switch,red,black,green,Inc,2000,1,1075,1,1,724920,729413,730488,93799,46,631.121,635.614,636.689,28.413,274.424,520.421,246.025,492.023,738.021,InConInc
1,bas,cue,1,DMCC8760894,bas_cue_run1_DMCC8760894,4D,e,c,InCon,l,1,2,,switch,red,black,green,Inc,4400,1,1553,2,2,735719,740212,741765,93799,47,641.92,646.413,647.966,28.413,274.424,520.421,246.025,492.023,738.021,InConInc
1,bas,cue,1,DMCC8760894,bas_cue_run1_DMCC8760894,H5,o,c,Con,n,2,2,,switch,red,black,black,NoInc,2000,1,1219,2,2,748918,753411,754630,93799,48,655.119,659.612,660.831,28.413,274.424,520.421,246.025,492.023,738.021,ConNoInc
1,bas,cue,1,DMCC8760894,bas_cue_run1_DMCC8760894,3E,o,v,InCon,n,2,1,,stay,red,black,green,Inc,3200,1,1217,2,2,759717,764211,765428,93799,49,665.918,670.412,671.629,28.413,274.424,520.421,246.025,492.023,738.021,InConInc
1,bas,cue,1,DMCC8760894,bas_cue_run1_DMCC8760894,A2,e,v,Con,n,1,1,,stay,red,black,black,NoInc,4400,1,1290,1,1,771717,776210,777500,93799,50,677.918,682.411,683.701,28.413,274.424,520.421,246.025,492.023,738.021,ConNoInc
1,bas,cue,1,DMCC8760894,bas_cue_run1_DMCC8760894,6I,e,v,Con,n,1,1,,stay,red,black,black,NoInc,4400,1,1680,1,1,784916,789422,791102,93799,51,691.117,695.623,697.303,28.413,274.424,520.421,246.025,492.023,738.021,ConNoInc
1,bas,cue,1,DMCC8760894,bas_cue_run1_DMCC8760894,B1,o,c,Con,n,2,2,,stay,red,black,black,NoInc,3200,1,1244,2,2,798115,802621,803865,93799,52,704.316,708.822,710.066,28.413,274.424,520.421,246.025,492.023,738.021,ConNoInc
1,bas,cue,1,DMCC8760894,bas_cue_run1_DMCC8760894,H5,o,c,Con,l,2,2,,switch,red,black,green,Inc,2000,1,1989,2,2,810114,814621,816610,93799,53,716.315,720.822,722.811,28.413,274.424,520.421,246.025,492.023,738.021,ConInc
1,bas,cue,1,DMCC8760894,bas_cue_run1_DMCC8760894,A2,e,v,Con,l,1,1,,stay,red,black,black,NoInc,3200,1,979,1,1,820914,825420,826399,93799,54,727.115,731.621,732.6,28.413,274.424,520.421,246.025,492.023,738.021,ConNoInc
1,bas,cue,2,DMCC8760894,bas_cue_run2_DMCC8760894,B1,o,c,Con,l,2,2,,,red,black,black,NoInc,4400,1,1150,2,2,82542,87035,88185,51427,1,31.115,35.608,36.758,28.409,274.406,520.417,246.021,492.019,738.016,ConNoInc
1,bas,cue,2,DMCC8760894,bas_cue_run2_DMCC8760894,E3,o,v,InCon,n,2,1,,switch,red,black,green,Inc,4400,1,942,2,2,95741,100234,101176,51427,2,44.314,48.807,49.749,28.409,274.406,520.417,246.021,492.019,738.016,InConInc
1,bas,cue,2,DMCC8760894,bas_cue_run2_DMCC8760894,5H,o,c,Con,n,2,2,,stay,red,black,black,NoInc,3200,1,1011,2,2,108941,113434,114445,51427,3,57.514,62.007,63.018,28.409,274.406,520.417,246.021,492.019,738.016,ConNoInc
1,bas,cue,2,DMCC8760894,bas_cue_run2_DMCC8760894,E3,o,v,InCon,l,2,1,,switch,red,black,green,Inc,3200,1,1070,1,1,120940,125433,126503,51427,4,69.513,74.006,75.076,28.409,274.406,520.417,246.021,492.019,738.016,InConInc
1,bas,cue,2,DMCC8760894,bas_cue_run2_DMCC8760894,6I,e,v,Con,l,1,1,,stay,red,black,green,Inc,2000,1,1002,1,1,132939,137432,138434,51427,5,81.512,86.005,87.007,28.409,274.406,520.417,246.021,492.019,738.016,ConInc
1,bas,cue,2,DMCC8760894,bas_cue_run2_DMCC8760894,B1,o,c,Con,n,2,2,,switch,red,black,black,NoInc,4400,1,1539,2,2,143738,148245,149784,51427,6,92.311,96.818,98.357,28.409,274.406,520.417,246.021,492.019,738.016,ConNoInc
1,bas,cue,2,DMCC8760894,bas_cue_run2_DMCC8760894,A2,e,v,Con,l,1,1,,switch,red,black,black,NoInc,3200,1,1164,1,1,156937,161444,162608,51427,7,105.51,110.017,111.181,28.409,274.406,520.417,246.021,492.019,738.016,ConNoInc
1,bas,cue,2,DMCC8760894,bas_cue_run2_DMCC8760894,4D,e,c,InCon,l,1,2,,stay,red,black,green,Inc,2000,0,2922,1,2,168937,173443,176365,51427,8,117.51,122.016,124.938,28.409,274.406,520.417,246.021,492.019,738.016,InConInc
1,bas,cue,2,DMCC8760894,bas_cue_run2_DMCC8760894,H5,o,c,Con,l,2,2,,stay,red,black,black,NoInc,2000,1,1893,2,2,179736,184242,186135,51427,9,128.309,132.815,134.708,28.409,274.406,520.417,246.021,492.019,738.016,ConNoInc
1,bas,cue,2,DMCC8760894,bas_cue_run2_DMCC8760894,A2,e,v,Con,n,1,1,,switch,red,black,black,NoInc,4400,1,1329,1,1,190535,195042,196371,51427,10,139.108,143.615,144.944,28.409,274.406,520.417,246.021,492.019,738.016,ConNoInc
1,bas,cue,2,DMCC8760894,bas_cue_run2_DMCC8760894,2A,e,v,Con,l,1,1,,switch,red,black,black,NoInc,2000,1,1060,1,1,203734,208241,209301,51427,11,152.307,156.814,157.874,28.409,274.406,520.417,246.021,492.019,738.016,ConNoInc
1,bas,cue,2,DMCC8760894,bas_cue_run2_DMCC8760894,6I,e,v,Con,n,1,1,,switch,red,black,black,NoInc,2000,1,1208,1,1,214534,219040,220248,51427,12,163.107,167.613,168.821,28.409,274.406,520.417,246.021,492.019,738.016,ConNoInc
1,bas,cue,2,DMCC8760894,bas_cue_run2_DMCC8760894,B2,e,c,InCon,l,1,2,,switch,red,black,black,NoInc,4400,1,1931,2,2,225333,229839,231770,51427,13,173.906,178.412,180.343,28.409,274.406,520.417,246.021,492.019,738.016,InConNoInc
1,bas,cue,2,DMCC8760894,bas_cue_run2_DMCC8760894,3E,o,v,InCon,n,2,1,,switch,red,black,green,Inc,3200,1,2110,2,2,238532,243039,245149,51427,14,187.105,191.612,193.722,28.409,274.406,520.417,246.021,492.019,738.016,InConInc
1,bas,cue,2,DMCC8760894,bas_cue_run2_DMCC8760894,D4,e,c,InCon,n,1,2,,stay,red,black,green,Inc,4400,1,1381,1,1,250545,255038,256419,51427,15,199.118,203.611,204.992,28.409,274.406,520.417,246.021,492.019,738.016,InConInc
1,bas,cue,2,DMCC8760894,bas_cue_run2_DMCC8760894,1B,o,c,Con,n,2,2,,stay,red,black,black,NoInc,2000,1,979,2,2,263744,268237,269216,51427,16,212.317,216.81,217.789,28.409,274.406,520.417,246.021,492.019,738.016,ConNoInc
1,bas,cue,2,DMCC8760894,bas_cue_run2_DMCC8760894,2A,e,v,Con,n,1,1,,stay,red,black,black,NoInc,3200,1,1053,1,1,274543,279036,280089,51427,17,223.116,227.609,228.662,28.409,274.406,520.417,246.021,492.019,738.016,ConNoInc
1,bas,cue,2,DMCC8760894,bas_cue_run2_DMCC8760894,1B,o,c,Con,l,2,2,,switch,red,black,black,NoInc,3200,1,1608,2,2,286542,291036,292644,51427,18,235.115,239.609,241.217,28.409,274.406,520.417,246.021,492.019,738.016,ConNoInc
1,bas,cue,2,DMCC8760894,bas_cue_run2_DMCC8760894,D4,e,c,InCon,l,1,2,,,red,black,green,Inc,3200,0,1365,1,2,328540,333033,334398,51427,19,277.113,281.606,282.971,28.409,274.406,520.417,246.021,492.019,738.016,InConInc
1,bas,cue,2,DMCC8760894,bas_cue_run2_DMCC8760894,D4,e,c,InCon,n,1,2,,switch,red,black,green,Inc,2000,1,791,1,1,340539,345032,345823,51427,20,289.112,293.605,294.396,28.409,274.406,520.417,246.021,492.019,738.016,InConInc
1,bas,cue,2,DMCC8760894,bas_cue_run2_DMCC8760894,2A,e,v,Con,l,1,1,,switch,red,black,black,NoInc,4400,1,1056,1,1,351338,355845,356901,51427,21,299.911,304.418,305.474,28.409,274.406,520.417,246.021,492.019,738.016,ConNoInc
1,bas,cue,2,DMCC8760894,bas_cue_run2_DMCC8760894,B1,o,c,Con,n,2,2,,switch,red,black,black,NoInc,4400,1,1623,2,2,364537,369044,370667,51427,22,313.11,317.617,319.24,28.409,274.406,520.417,246.021,492.019,738.016,ConNoInc
1,bas,cue,2,DMCC8760894,bas_cue_run2_DMCC8760894,1B,o,c,Con,l,2,2,,switch,red,black,black,NoInc,4400,1,1723,2,2,377737,382243,383966,51427,23,326.31,330.816,332.539,28.409,274.406,520.417,246.021,492.019,738.016,ConNoInc
1,bas,cue,2,DMCC8760894,bas_cue_run2_DMCC8760894,I6,e,v,Con,n,1,1,,switch,red,black,green,Inc,3200,1,1475,1,1,390936,395442,396917,51427,24,339.509,344.015,345.49,28.409,274.406,520.417,246.021,492.019,738.016,ConInc
1,bas,cue,2,DMCC8760894,bas_cue_run2_DMCC8760894,3E,o,v,InCon,l,2,1,,switch,red,black,green,Inc,2000,1,934,1,1,402935,407441,408375,51427,25,351.508,356.014,356.948,28.409,274.406,520.417,246.021,492.019,738.016,InConInc
1,bas,cue,2,DMCC8760894,bas_cue_run2_DMCC8760894,2B,e,c,InCon,n,1,2,,switch,red,black,black,NoInc,3200,1,1347,1,1,413734,418241,419588,51427,26,362.307,366.814,368.161,28.409,274.406,520.417,246.021,492.019,738.016,InConNoInc
1,bas,cue,2,DMCC8760894,bas_cue_run2_DMCC8760894,5H,o,c,Con,l,2,2,,switch,red,black,green,Inc,2000,1,1419,2,2,425734,430240,431659,51427,27,374.307,378.813,380.232,28.409,274.406,520.417,246.021,492.019,738.016,ConInc
1,bas,cue,2,DMCC8760894,bas_cue_run2_DMCC8760894,H5,o,c,Con,l,2,2,,stay,red,black,black,NoInc,2000,1,1812,2,2,436533,441039,442851,51427,28,385.106,389.612,391.424,28.409,274.406,520.417,246.021,492.019,738.016,ConNoInc
1,bas,cue,2,DMCC8760894,bas_cue_run2_DMCC8760894,I6,e,v,Con,n,1,1,,switch,red,black,black,NoInc,4400,1,2958,1,1,447332,451839,454797,51427,29,395.905,400.412,403.37,28.409,274.406,520.417,246.021,492.019,738.016,ConNoInc
1,bas,cue,2,DMCC8760894,bas_cue_run2_DMCC8760894,4D,e,c,InCon,n,1,2,,stay,red,black,green,Inc,3200,1,1711,1,1,460545,465038,466749,51427,30,409.118,413.611,415.322,28.409,274.406,520.417,246.021,492.019,738.016,InConInc
1,bas,cue,2,DMCC8760894,bas_cue_run2_DMCC8760894,B1,o,c,Con,l,2,2,,switch,red,black,black,NoInc,3200,1,1652,2,2,472544,477037,478689,51427,31,421.117,425.61,427.262,28.409,274.406,520.417,246.021,492.019,738.016,ConNoInc
1,bas,cue,2,DMCC8760894,bas_cue_run2_DMCC8760894,I6,e,v,Con,l,1,1,,stay,red,black,black,NoInc,4400,1,3181,1,1,484543,489036,492217,51427,32,433.116,437.609,440.79,28.409,274.406,520.417,246.021,492.019,738.016,ConNoInc
1,bas,cue,2,DMCC8760894,bas_cue_run2_DMCC8760894,1A,o,v,InCon,n,2,1,,switch,red,black,black,NoInc,2000,1,1026,2,2,497742,502235,503261,51427,33,446.315,450.808,451.834,28.409,274.406,520.417,246.021,492.019,738.016,InConNoInc
1,bas,cue,2,DMCC8760894,bas_cue_run2_DMCC8760894,A2,e,v,Con,l,1,1,,switch,red,black,black,NoInc,3200,1,796,1,1,508542,513035,513831,51427,34,457.115,461.608,462.404,28.409,274.406,520.417,246.021,492.019,738.016,ConNoInc
1,bas,cue,2,DMCC8760894,bas_cue_run2_DMCC8760894,2A,e,v,Con,n,1,1,,switch,red,black,black,NoInc,4400,1,701,1,1,520541,525034,525735,51427,35,469.114,473.607,474.308,28.409,274.406,520.417,246.021,492.019,738.016,ConNoInc
1,bas,cue,2,DMCC8760894,bas_cue_run2_DMCC8760894,A2,e,v,Con,n,1,1,,stay,red,black,black,NoInc,2000,1,1457,1,1,533740,538233,539690,51427,36,482.313,486.806,488.263,28.409,274.406,520.417,246.021,492.019,738.016,ConNoInc
1,bas,cue,2,DMCC8760894,bas_cue_run2_DMCC8760894,H5,o,c,Con,n,2,2,,,red,black,green,Inc,3200,1,1360,2,2,574537,579044,580404,51427,37,523.11,527.617,528.977,28.409,274.406,520.417,246.021,492.019,738.016,ConInc
1,bas,cue,2,DMCC8760894,bas_cue_run2_DMCC8760894,A2,e,v,Con,l,1,1,,switch,red,black,black,NoInc,4400,1,1236,1,1,586537,591043,592279,51427,38,535.11,539.616,540.852,28.409,274.406,520.417,246.021,492.019,738.016,ConNoInc
1,bas,cue,2,DMCC8760894,bas_cue_run2_DMCC8760894,1B,o,c,Con,l,2,2,,stay,red,black,black,NoInc,3200,1,1230,2,2,599736,604242,605472,51427,39,548.309,552.815,554.045,28.409,274.406,520.417,246.021,492.019,738.016,ConNoInc
1,bas,cue,2,DMCC8760894,bas_cue_run2_DMCC8760894,B1,o,c,Con,n,2,2,,switch,red,black,black,NoInc,3200,1,1200,2,2,611735,616241,617441,51427,40,560.308,564.814,566.014,28.409,274.406,520.417,246.021,492.019,738.016,ConNoInc
1,bas,cue,2,DMCC8760894,bas_cue_run2_DMCC8760894,A1,o,v,InCon,l,2,1,,switch,red,black,black,NoInc,4400,1,1161,1,1,623734,628241,629402,51427,41,572.307,576.814,577.975,28.409,274.406,520.417,246.021,492.019,738.016,InConNoInc
1,bas,cue,2,DMCC8760894,bas_cue_run2_DMCC8760894,2A,e,v,Con,n,1,1,,switch,red,black,black,NoInc,2000,1,2530,1,1,636933,641440,643970,51427,42,585.506,590.013,592.543,28.409,274.406,520.417,246.021,492.019,738.016,ConNoInc
1,bas,cue,2,DMCC8760894,bas_cue_run2_DMCC8760894,6I,e,v,Con,n,1,1,,stay,red,black,black,NoInc,4400,1,1466,1,1,647733,652239,653705,51427,43,596.306,600.812,602.278,28.409,274.406,520.417,246.021,492.019,738.016,ConNoInc
1,bas,cue,2,DMCC8760894,bas_cue_run2_DMCC8760894,A2,e,v,Con,n,1,1,,stay,red,black,black,NoInc,2000,1,1009,1,1,660932,665438,666447,51427,44,609.505,614.011,615.02,28.409,274.406,520.417,246.021,492.019,738.016,ConNoInc
1,bas,cue,2,DMCC8760894,bas_cue_run2_DMCC8760894,B1,o,c,Con,l,2,2,,switch,red,black,black,NoInc,2000,1,1520,2,2,671744,676237,677757,51427,45,620.317,624.81,626.33,28.409,274.406,520.417,246.021,492.019,738.016,ConNoInc
1,bas,cue,2,DMCC8760894,bas_cue_run2_DMCC8760894,4D,e,c,InCon,l,1,2,,stay,red,black,green,Inc,2000,1,1343,2,2,682544,687037,688380,51427,46,631.117,635.61,636.953,28.409,274.406,520.417,246.021,492.019,738.016,InConInc
1,bas,cue,2,DMCC8760894,bas_cue_run2_DMCC8760894,2B,e,c,InCon,l,1,2,,stay,red,black,black,NoInc,2000,1,1086,2,2,693343,697836,698922,51427,47,641.916,646.409,647.495,28.409,274.406,520.417,246.021,492.019,738.016,InConNoInc
1,bas,cue,2,DMCC8760894,bas_cue_run2_DMCC8760894,H5,o,c,Con,l,2,2,,stay,red,black,black,NoInc,4400,1,2250,2,2,704142,708635,710885,51427,48,652.715,657.208,659.458,28.409,274.406,520.417,246.021,492.019,738.016,ConNoInc
1,bas,cue,2,DMCC8760894,bas_cue_run2_DMCC8760894,5H,o,c,Con,n,2,2,,switch,red,black,black,NoInc,4400,0,0,,2,717341,721835,0,51427,49,665.914,670.408,-51.427,28.409,274.406,520.417,246.021,492.019,738.016,ConNoInc
1,bas,cue,2,DMCC8760894,bas_cue_run2_DMCC8760894,D4,e,c,InCon,l,1,2,,switch,red,black,green,Inc,3200,1,1090,2,2,730541,735034,736124,51427,50,679.114,683.607,684.697,28.409,274.406,520.417,246.021,492.019,738.016,InConInc
1,bas,cue,2,DMCC8760894,bas_cue_run2_DMCC8760894,3E,o,v,InCon,n,2,1,,switch,red,black,green,Inc,3200,1,1185,2,2,742540,747033,748218,51427,51,691.113,695.606,696.791,28.409,274.406,520.417,246.021,492.019,738.016,InConInc
1,bas,cue,2,DMCC8760894,bas_cue_run2_DMCC8760894,1B,o,c,Con,n,2,2,,stay,red,black,black,NoInc,2000,1,2331,2,2,754539,759032,761363,51427,52,703.112,707.605,709.936,28.409,274.406,520.417,246.021,492.019,738.016,ConNoInc
1,bas,cue,2,DMCC8760894,bas_cue_run2_DMCC8760894,E3,o,v,InCon,l,2,1,,switch,red,black,green,Inc,3200,0,0,,1,765338,769845,0,51427,53,713.911,718.418,-51.427,28.409,274.406,520.417,246.021,492.019,738.016,InConInc
1,bas,cue,2,DMCC8760894,bas_cue_run2_DMCC8760894,4D,e,c,InCon,n,1,2,,switch,red,black,green,Inc,4400,1,822,1,1,777338,781844,782666,51427,54,725.911,730.417,731.239,28.409,274.406,520.417,246.021,492.019,738.016,InConInc
1,pro,cue,1,DMCC8760894,pro_cue_run1_DMCC8760894,A2,e,v,Con,n,1,1,,,red,black,black,NoInc,3200,1,789,1,1,158950,163457,164246,127841,1,31.109,35.616,36.405,28.416,274.412,520.421,246.025,492.021,738.03,ConNoInc
1,pro,cue,1,DMCC8760894,pro_cue_run1_DMCC8760894,H5,o,c,Con,l,2,2,,switch,red,black,black,NoInc,2000,1,1128,2,2,170950,175456,176584,127841,2,43.109,47.615,48.743,28.416,274.412,520.421,246.025,492.021,738.03,ConNoInc
1,pro,cue,1,DMCC8760894,pro_cue_run1_DMCC8760894,1B,o,c,Con,l,2,2,,stay,red,black,black,NoInc,2000,1,914,2,2,181750,186256,187170,127841,3,53.909,58.415,59.329,28.416,274.412,520.421,246.025,492.021,738.03,ConNoInc
1,pro,cue,1,DMCC8760894,pro_cue_run1_DMCC8760894,D4,e,c,InCon,n,1,2,yes,switch,green,black,green,Inc,2000,1,893,1,1,192563,197056,197949,127841,4,64.722,69.215,70.108,28.416,274.412,520.421,246.025,492.021,738.03,InConInc
1,pro,cue,1,DMCC8760894,pro_cue_run1_DMCC8760894,6I,e,v,Con,n,1,1,yes,stay,green,black,green,Inc,4400,1,671,1,1,203363,207856,208527,127841,5,75.522,80.015,80.686,28.416,274.412,520.421,246.025,492.021,738.03,ConInc
1,pro,cue,1,DMCC8760894,pro_cue_run1_DMCC8760894,5H,o,c,Con,l,2,2,,switch,red,black,black,NoInc,3200,1,973,2,2,216562,221056,222029,127841,6,88.721,93.215,94.188,28.416,274.412,520.421,246.025,492.021,738.03,ConNoInc
1,pro,cue,1,DMCC8760894,pro_cue_run1_DMCC8760894,E3,o,v,InCon,l,2,1,yes,stay,green,black,green,Inc,3200,1,842,1,1,228562,233055,233897,127841,7,100.721,105.214,106.056,28.416,274.412,520.421,246.025,492.021,738.03,InConInc
1,pro,cue,1,DMCC8760894,pro_cue_run1_DMCC8760894,A2,e,v,Con,l,1,1,,stay,red,black,black,NoInc,4400,1,756,1,1,240562,245055,245811,127841,8,112.721,117.214,117.97,28.416,274.412,520.421,246.025,492.021,738.03,ConNoInc
1,pro,cue,1,DMCC8760894,pro_cue_run1_DMCC8760894,B1,o,c,Con,l,2,2,,stay,red,black,black,NoInc,4400,1,983,2,2,253762,258255,259238,127841,9,125.921,130.414,131.397,28.416,274.412,520.421,246.025,492.021,738.03,ConNoInc
1,pro,cue,1,DMCC8760894,pro_cue_run1_DMCC8760894,1B,o,c,Con,n,2,2,,switch,red,black,black,NoInc,2000,1,896,2,2,266962,271455,272351,127841,10,139.121,143.614,144.51,28.416,274.412,520.421,246.025,492.021,738.03,ConNoInc
1,pro,cue,1,DMCC8760894,pro_cue_run1_DMCC8760894,1A,o,v,InCon,l,2,1,,switch,red,black,black,NoInc,4400,1,816,1,1,277761,282255,283071,127841,11,149.92,154.414,155.23,28.416,274.412,520.421,246.025,492.021,738.03,InConNoInc
1,pro,cue,1,DMCC8760894,pro_cue_run1_DMCC8760894,B2,e,c,InCon,n,1,2,,switch,red,black,black,NoInc,4400,1,1430,1,1,290961,295454,296884,127841,12,163.12,167.613,169.043,28.416,274.412,520.421,246.025,492.021,738.03,InConNoInc
1,pro,cue,1,DMCC8760894,pro_cue_run1_DMCC8760894,2A,e,v,Con,n,1,1,,stay,red,black,black,NoInc,3200,1,771,1,1,304161,308654,309425,127841,13,176.32,180.813,181.584,28.416,274.412,520.421,246.025,492.021,738.03,ConNoInc
1,pro,cue,1,DMCC8760894,pro_cue_run1_DMCC8760894,B1,o,c,Con,n,2,2,,stay,red,black,black,NoInc,3200,1,1007,2,2,316161,320654,321661,127841,14,188.32,192.813,193.82,28.416,274.412,520.421,246.025,492.021,738.03,ConNoInc
1,pro,cue,1,DMCC8760894,pro_cue_run1_DMCC8760894,4D,e,c,InCon,n,1,2,yes,stay,green,black,green,Inc,4400,1,764,1,1,328160,332654,333418,127841,15,200.319,204.813,205.577,28.416,274.412,520.421,246.025,492.021,738.03,InConInc
1,pro,cue,1,DMCC8760894,pro_cue_run1_DMCC8760894,I6,e,v,Con,l,1,1,yes,switch,green,black,green,Inc,3200,1,835,1,1,341360,345853,346688,127841,16,213.519,218.012,218.847,28.416,274.412,520.421,246.025,492.021,738.03,ConInc
1,pro,cue,1,DMCC8760894,pro_cue_run1_DMCC8760894,D4,e,c,InCon,l,1,2,too.slow,stay,green,black,green,Inc,2000,1,1445,2,2,353360,357853,359298,127841,17,225.519,230.012,231.457,28.416,274.412,520.421,246.025,492.021,738.03,InConInc
1,pro,cue,1,DMCC8760894,pro_cue_run1_DMCC8760894,I6,e,v,Con,n,1,1,,switch,red,black,black,NoInc,2000,1,900,1,1,364160,368653,369553,127841,18,236.319,240.812,241.712,28.416,274.412,520.421,246.025,492.021,738.03,ConNoInc
1,pro,cue,1,DMCC8760894,pro_cue_run1_DMCC8760894,I6,e,v,Con,l,1,1,,,red,black,black,NoInc,3200,1,902,1,1,404959,409452,410354,127841,19,277.118,281.611,282.513,28.416,274.412,520.421,246.025,492.021,738.03,ConNoInc
1,pro,cue,1,DMCC8760894,pro_cue_run1_DMCC8760894,1B,o,c,Con,l,2,2,,stay,red,black,black,NoInc,4400,0,839,1,2,416959,421452,422291,127841,20,289.118,293.611,294.45,28.416,274.412,520.421,246.025,492.021,738.03,ConNoInc
1,pro,cue,1,DMCC8760894,pro_cue_run1_DMCC8760894,1B,o,c,Con,n,2,2,,switch,red,black,black,NoInc,3200,1,707,2,2,430159,434652,435359,127841,21,302.318,306.811,307.518,28.416,274.412,520.421,246.025,492.021,738.03,ConNoInc
1,pro,cue,1,DMCC8760894,pro_cue_run1_DMCC8760894,2A,e,v,Con,l,1,1,,switch,red,black,black,NoInc,4400,1,1154,1,1,442158,446652,447806,127841,22,314.317,318.811,319.965,28.416,274.412,520.421,246.025,492.021,738.03,ConNoInc
1,pro,cue,1,DMCC8760894,pro_cue_run1_DMCC8760894,3E,o,v,InCon,l,2,1,yes,stay,green,black,green,Inc,2000,1,861,1,1,455358,459852,460713,127841,23,327.517,332.011,332.872,28.416,274.412,520.421,246.025,492.021,738.03,InConInc
1,pro,cue,1,DMCC8760894,pro_cue_run1_DMCC8760894,5H,o,c,Con,l,2,2,,stay,red,black,black,NoInc,4400,1,977,2,2,466158,470651,471628,127841,24,338.317,342.81,343.787,28.416,274.412,520.421,246.025,492.021,738.03,ConNoInc
1,pro,cue,1,DMCC8760894,pro_cue_run1_DMCC8760894,6I,e,v,Con,n,1,1,,switch,red,black,black,NoInc,3200,1,691,1,1,479358,483851,484542,127841,25,351.517,356.01,356.701,28.416,274.412,520.421,246.025,492.021,738.03,ConNoInc
1,pro,cue,1,DMCC8760894,pro_cue_run1_DMCC8760894,E3,o,v,InCon,n,2,1,yes,stay,green,black,green,Inc,2000,1,870,2,2,491358,495851,496721,127841,26,363.517,368.01,368.88,28.416,274.412,520.421,246.025,492.021,738.03,InConInc
1,pro,cue,1,DMCC8760894,pro_cue_run1_DMCC8760894,A1,o,v,InCon,n,2,1,,stay,red,black,black,NoInc,2000,1,1423,2,2,502157,506651,508074,127841,27,374.316,378.81,380.233,28.416,274.412,520.421,246.025,492.021,738.03,InConNoInc
1,pro,cue,1,DMCC8760894,pro_cue_run1_DMCC8760894,B1,o,c,Con,l,2,2,,switch,red,black,black,NoInc,2000,1,856,2,2,512957,517450,518306,127841,28,385.116,389.609,390.465,28.416,274.412,520.421,246.025,492.021,738.03,ConNoInc
1,pro,cue,1,DMCC8760894,pro_cue_run1_DMCC8760894,E3,o,v,InCon,n,2,1,yes,switch,green,black,green,Inc,2000,1,751,2,2,523757,528250,529001,127841,29,395.916,400.409,401.16,28.416,274.412,520.421,246.025,492.021,738.03,InConInc
1,pro,cue,1,DMCC8760894,pro_cue_run1_DMCC8760894,2B,e,c,InCon,l,1,2,,switch,red,black,black,NoInc,4400,0,689,1,2,534557,539050,539739,127841,30,406.716,411.209,411.898,28.416,274.412,520.421,246.025,492.021,738.03,InConNoInc
1,pro,cue,1,DMCC8760894,pro_cue_run1_DMCC8760894,A2,e,v,Con,n,1,1,,switch,red,black,black,NoInc,3200,1,956,1,1,547757,552250,553206,127841,31,419.916,424.409,425.365,28.416,274.412,520.421,246.025,492.021,738.03,ConNoInc
1,pro,cue,1,DMCC8760894,pro_cue_run1_DMCC8760894,2A,e,v,Con,n,1,1,,stay,red,black,black,NoInc,2000,1,370,1,1,559756,564250,564620,127841,32,431.915,436.409,436.779,28.416,274.412,520.421,246.025,492.021,738.03,ConNoInc
1,pro,cue,1,DMCC8760894,pro_cue_run1_DMCC8760894,D4,e,c,InCon,l,1,2,yes,switch,green,black,green,Inc,3200,1,751,2,2,570556,575050,575801,127841,33,442.715,447.209,447.96,28.416,274.412,520.421,246.025,492.021,738.03,InConInc
1,pro,cue,1,DMCC8760894,pro_cue_run1_DMCC8760894,5H,o,c,Con,n,2,2,yes,switch,green,black,green,Inc,4400,1,532,2,2,582556,587063,587595,127841,34,454.715,459.222,459.754,28.416,274.412,520.421,246.025,492.021,738.03,ConInc
1,pro,cue,1,DMCC8760894,pro_cue_run1_DMCC8760894,3E,o,v,InCon,n,2,1,yes,stay,green,black,green,Inc,3200,1,807,2,2,595756,600262,601069,127841,35,467.915,472.421,473.228,28.416,274.412,520.421,246.025,492.021,738.03,InConInc
1,pro,cue,1,DMCC8760894,pro_cue_run1_DMCC8760894,2A,e,v,Con,l,1,1,,switch,red,black,black,NoInc,4400,1,1451,1,1,607756,612262,613713,127841,36,479.915,484.421,485.872,28.416,274.412,520.421,246.025,492.021,738.03,ConNoInc
1,pro,cue,1,DMCC8760894,pro_cue_run1_DMCC8760894,H5,o,c,Con,l,2,2,too.slow,,green,black,green,Inc,4400,1,1563,2,2,650955,655461,657024,127841,37,523.114,527.62,529.183,28.416,274.412,520.421,246.025,492.021,738.03,ConInc
1,pro,cue,1,DMCC8760894,pro_cue_run1_DMCC8760894,H5,o,c,Con,n,2,2,,switch,red,black,black,NoInc,4400,1,858,2,2,664155,668661,669519,127841,38,536.314,540.82,541.678,28.416,274.412,520.421,246.025,492.021,738.03,ConNoInc
1,pro,cue,1,DMCC8760894,pro_cue_run1_DMCC8760894,A2,e,v,Con,n,1,1,,stay,red,black,black,NoInc,2000,1,616,1,1,677354,681861,682477,127841,39,549.513,554.02,554.636,28.416,274.412,520.421,246.025,492.021,738.03,ConNoInc
1,pro,cue,1,DMCC8760894,pro_cue_run1_DMCC8760894,B1,o,c,Con,l,2,2,,switch,red,black,black,NoInc,3200,1,752,2,2,688154,692661,693413,127841,40,560.313,564.82,565.572,28.416,274.412,520.421,246.025,492.021,738.03,ConNoInc
1,pro,cue,1,DMCC8760894,pro_cue_run1_DMCC8760894,2A,e,v,Con,n,1,1,,switch,red,black,black,NoInc,3200,1,625,1,1,700154,704661,705286,127841,41,572.313,576.82,577.445,28.416,274.412,520.421,246.025,492.021,738.03,ConNoInc
1,pro,cue,1,DMCC8760894,pro_cue_run1_DMCC8760894,1B,o,c,Con,l,2,2,,switch,red,black,black,NoInc,3200,0,0,,2,712154,716660,0,127841,42,584.313,588.819,-127.841,28.416,274.412,520.421,246.025,492.021,738.03,ConNoInc
1,pro,cue,1,DMCC8760894,pro_cue_run1_DMCC8760894,1A,o,v,InCon,n,2,1,,switch,red,black,black,NoInc,4400,1,1625,2,2,724154,728660,730285,127841,43,596.313,600.819,602.444,28.416,274.412,520.421,246.025,492.021,738.03,InConNoInc
1,pro,cue,1,DMCC8760894,pro_cue_run1_DMCC8760894,3E,o,v,InCon,l,2,1,yes,switch,green,black,green,Inc,2000,1,620,1,1,737353,741860,742480,127841,44,609.512,614.019,614.639,28.416,274.412,520.421,246.025,492.021,738.03,InConInc
1,pro,cue,1,DMCC8760894,pro_cue_run1_DMCC8760894,4D,e,c,InCon,n,1,2,yes,switch,green,black,green,Inc,2000,1,641,1,1,748153,752660,753301,127841,45,620.312,624.819,625.46,28.416,274.412,520.421,246.025,492.021,738.03,InConInc
1,pro,cue,1,DMCC8760894,pro_cue_run1_DMCC8760894,4D,e,c,InCon,l,1,2,yes,switch,green,black,green,Inc,3200,1,816,2,2,758953,763460,764276,127841,46,631.112,635.619,636.435,28.416,274.412,520.421,246.025,492.021,738.03,InConInc
1,pro,cue,1,DMCC8760894,pro_cue_run1_DMCC8760894,3E,o,v,InCon,n,2,1,yes,switch,green,black,green,Inc,3200,1,720,2,2,770953,775459,776179,127841,47,643.112,647.618,648.338,28.416,274.412,520.421,246.025,492.021,738.03,InConInc
1,pro,cue,1,DMCC8760894,pro_cue_run1_DMCC8760894,6I,e,v,Con,l,1,1,,switch,red,black,black,NoInc,4400,1,1038,1,1,782953,787459,788497,127841,48,655.112,659.618,660.656,28.416,274.412,520.421,246.025,492.021,738.03,ConNoInc
1,pro,cue,1,DMCC8760894,pro_cue_run1_DMCC8760894,E3,o,v,InCon,l,2,1,yes,stay,green,black,green,Inc,4400,1,606,1,1,796152,800659,801265,127841,49,668.311,672.818,673.424,28.416,274.412,520.421,246.025,492.021,738.03,InConInc
1,pro,cue,1,DMCC8760894,pro_cue_run1_DMCC8760894,2A,e,v,Con,l,1,1,,stay,red,black,black,NoInc,2000,1,1010,1,1,809352,813859,814869,127841,50,681.511,686.018,687.028,28.416,274.412,520.421,246.025,492.021,738.03,ConNoInc
1,pro,cue,1,DMCC8760894,pro_cue_run1_DMCC8760894,A2,e,v,Con,l,1,1,,stay,red,black,black,NoInc,4400,1,626,1,1,820152,824658,825284,127841,51,692.311,696.817,697.443,28.416,274.412,520.421,246.025,492.021,738.03,ConNoInc
1,pro,cue,1,DMCC8760894,pro_cue_run1_DMCC8760894,1B,o,c,Con,n,2,2,,switch,red,black,black,NoInc,3200,1,1198,2,2,833352,837858,839056,127841,52,705.511,710.017,711.215,28.416,274.412,520.421,246.025,492.021,738.03,ConNoInc
1,pro,cue,1,DMCC8760894,pro_cue_run1_DMCC8760894,6I,e,v,Con,n,1,1,,stay,red,black,black,NoInc,2000,1,1311,1,1,845351,849858,851169,127841,53,717.51,722.017,723.328,28.416,274.412,520.421,246.025,492.021,738.03,ConNoInc
1,pro,cue,1,DMCC8760894,pro_cue_run1_DMCC8760894,B1,o,c,Con,n,2,2,,stay,red,black,black,NoInc,2000,1,1093,2,2,856151,860658,861751,127841,54,728.31,732.817,733.91,28.416,274.412,520.421,246.025,492.021,738.03,ConNoInc
1,pro,cue,2,DMCC8760894,pro_cue_run2_DMCC8760894,2A,e,v,Con,n,1,1,,,red,black,black,NoInc,3200,1,646,1,1,70517,75024,75670,39414,1,31.103,35.61,36.256,28.41,274.405,520.401,246.019,492.015,738.011,ConNoInc
1,pro,cue,2,DMCC8760894,pro_cue_run2_DMCC8760894,3E,o,v,InCon,n,2,1,yes,stay,green,black,green,Inc,3200,1,783,2,2,82517,87023,87806,39414,2,43.103,47.609,48.392,28.41,274.405,520.401,246.019,492.015,738.011,InConInc
1,pro,cue,2,DMCC8760894,pro_cue_run2_DMCC8760894,A2,e,v,Con,n,1,1,,stay,red,black,black,NoInc,4400,1,745,1,1,94517,99023,99768,39414,3,55.103,59.609,60.354,28.41,274.405,520.401,246.019,492.015,738.011,ConNoInc
1,pro,cue,2,DMCC8760894,pro_cue_run2_DMCC8760894,D4,e,c,InCon,n,1,2,yes,stay,green,black,green,Inc,3200,1,786,1,1,107716,112223,113009,39414,4,68.302,72.809,73.595,28.41,274.405,520.401,246.019,492.015,738.011,InConInc
1,pro,cue,2,DMCC8760894,pro_cue_run2_DMCC8760894,5H,o,c,Con,n,2,2,,stay,red,black,black,NoInc,4400,1,874,2,2,119716,124223,125097,39414,5,80.302,84.809,85.683,28.41,274.405,520.401,246.019,492.015,738.011,ConNoInc
1,pro,cue,2,DMCC8760894,pro_cue_run2_DMCC8760894,H5,o,c,Con,l,2,2,,switch,red,black,black,NoInc,2000,1,1285,2,2,132916,137422,138707,39414,6,93.502,98.008,99.293,28.41,274.405,520.401,246.019,492.015,738.011,ConNoInc
1,pro,cue,2,DMCC8760894,pro_cue_run2_DMCC8760894,B1,o,c,Con,l,2,2,,stay,red,black,black,NoInc,2000,1,843,2,2,143716,148222,149065,39414,7,104.302,108.808,109.651,28.41,274.405,520.401,246.019,492.015,738.011,ConNoInc
1,pro,cue,2,DMCC8760894,pro_cue_run2_DMCC8760894,2A,e,v,Con,l,1,1,,stay,red,black,black,NoInc,2000,1,691,1,1,154515,159022,159713,39414,8,115.101,119.608,120.299,28.41,274.405,520.401,246.019,492.015,738.011,ConNoInc
1,pro,cue,2,DMCC8760894,pro_cue_run2_DMCC8760894,A2,e,v,Con,l,1,1,,stay,red,black,black,NoInc,4400,1,1332,1,1,165315,169822,171154,39414,9,125.901,130.408,131.74,28.41,274.405,520.401,246.019,492.015,738.011,ConNoInc
1,pro,cue,2,DMCC8760894,pro_cue_run2_DMCC8760894,4D,e,c,InCon,l,1,2,yes,stay,green,black,green,Inc,3200,1,877,2,2,178515,183022,183899,39414,10,139.101,143.608,144.485,28.41,274.405,520.401,246.019,492.015,738.011,InConInc
1,pro,cue,2,DMCC8760894,pro_cue_run2_DMCC8760894,E3,o,v,InCon,l,2,1,yes,stay,green,black,green,Inc,4400,1,759,1,1,190515,195021,195780,39414,11,151.101,155.607,156.366,28.41,274.405,520.401,246.019,492.015,738.011,InConInc
1,pro,cue,2,DMCC8760894,pro_cue_run2_DMCC8760894,1B,o,c,Con,l,2,2,,stay,red,black,black,NoInc,2000,1,2650,2,2,203715,208221,210871,39414,12,164.301,168.807,171.457,28.41,274.405,520.401,246.019,492.015,738.011,ConNoInc
1,pro,cue,2,DMCC8760894,pro_cue_run2_DMCC8760894,B1,o,c,Con,n,2,2,,switch,red,black,black,NoInc,2000,1,1044,2,2,214528,219021,220065,39414,13,175.114,179.607,180.651,28.41,274.405,520.401,246.019,492.015,738.011,ConNoInc
1,pro,cue,2,DMCC8760894,pro_cue_run2_DMCC8760894,1B,o,c,Con,n,2,2,,stay,red,black,black,NoInc,4400,1,1466,2,2,225328,229821,231287,39414,14,185.914,190.407,191.873,28.41,274.405,520.401,246.019,492.015,738.011,ConNoInc
1,pro,cue,2,DMCC8760894,pro_cue_run2_DMCC8760894,6I,e,v,Con,n,1,1,,stay,red,black,black,NoInc,4400,1,1300,1,1,238527,243021,244321,39414,15,199.113,203.607,204.907,28.41,274.405,520.401,246.019,492.015,738.011,ConNoInc
1,pro,cue,2,DMCC8760894,pro_cue_run2_DMCC8760894,B2,e,c,InCon,l,1,2,,switch,red,black,black,NoInc,3200,1,1418,2,2,251727,256220,257638,39414,16,212.313,216.806,218.224,28.41,274.405,520.401,246.019,492.015,738.011,InConNoInc
1,pro,cue,2,DMCC8760894,pro_cue_run2_DMCC8760894,E3,o,v,InCon,n,2,1,yes,switch,green,black,green,Inc,2000,1,923,2,2,263727,268220,269143,39414,17,224.313,228.806,229.729,28.41,274.405,520.401,246.019,492.015,738.011,InConInc
1,pro,cue,2,DMCC8760894,pro_cue_run2_DMCC8760894,6I,e,v,Con,l,1,1,yes,switch,green,black,green,Inc,3200,1,614,1,1,274527,279020,279634,39414,18,235.113,239.606,240.22,28.41,274.405,520.401,246.019,492.015,738.011,ConInc
1,pro,cue,2,DMCC8760894,pro_cue_run2_DMCC8760894,B1,o,c,Con,l,2,2,,,red,black,black,NoInc,3200,0,0,,2,316526,321019,0,39414,19,277.112,281.605,-39.414,28.41,274.405,520.401,246.019,492.015,738.011,ConNoInc
1,pro,cue,2,DMCC8760894,pro_cue_run2_DMCC8760894,3E,o,v,InCon,l,2,1,yes,stay,green,black,green,Inc,2000,1,507,1,1,328526,333019,333526,39414,20,289.112,293.605,294.112,28.41,274.405,520.401,246.019,492.015,738.011,InConInc
1,pro,cue,2,DMCC8760894,pro_cue_run2_DMCC8760894,A2,e,v,Con,l,1,1,,stay,red,black,black,NoInc,4400,1,501,1,1,339326,343819,344320,39414,21,299.912,304.405,304.906,28.41,274.405,520.401,246.019,492.015,738.011,ConNoInc
1,pro,cue,2,DMCC8760894,pro_cue_run2_DMCC8760894,I6,e,v,Con,n,1,1,,switch,red,black,black,NoInc,3200,1,866,1,1,352525,357019,357885,39414,22,313.111,317.605,318.471,28.41,274.405,520.401,246.019,492.015,738.011,ConNoInc
1,pro,cue,2,DMCC8760894,pro_cue_run2_DMCC8760894,I6,e,v,Con,l,1,1,,switch,red,black,black,NoInc,2000,1,1678,1,1,364525,369018,370696,39414,23,325.111,329.604,331.282,28.41,274.405,520.401,246.019,492.015,738.011,ConNoInc
1,pro,cue,2,DMCC8760894,pro_cue_run2_DMCC8760894,4D,e,c,InCon,n,1,2,yes,switch,green,black,green,Inc,2000,1,787,1,1,375325,379818,380605,39414,24,335.911,340.404,341.191,28.41,274.405,520.401,246.019,492.015,738.011,InConInc
1,pro,cue,2,DMCC8760894,pro_cue_run2_DMCC8760894,2A,e,v,Con,n,1,1,,stay,red,black,black,NoInc,3200,1,810,1,1,386125,390618,391428,39414,25,346.711,351.204,352.014,28.41,274.405,520.401,246.019,492.015,738.011,ConNoInc
1,pro,cue,2,DMCC8760894,pro_cue_run2_DMCC8760894,1B,o,c,Con,l,2,2,,switch,red,black,black,NoInc,4400,1,1171,2,2,398125,402618,403789,39414,26,358.711,363.204,364.375,28.41,274.405,520.401,246.019,492.015,738.011,ConNoInc
1,pro,cue,2,DMCC8760894,pro_cue_run2_DMCC8760894,2A,e,v,Con,l,1,1,,stay,red,black,black,NoInc,4400,0,1719,2,1,411324,415818,417537,39414,27,371.91,376.404,378.123,28.41,274.405,520.401,246.019,492.015,738.011,ConNoInc
1,pro,cue,2,DMCC8760894,pro_cue_run2_DMCC8760894,I6,e,v,Con,n,1,1,yes,switch,green,black,green,Inc,4400,1,780,1,1,424524,429017,429797,39414,28,385.11,389.603,390.383,28.41,274.405,520.401,246.019,492.015,738.011,ConInc
1,pro,cue,2,DMCC8760894,pro_cue_run2_DMCC8760894,2B,e,c,InCon,n,1,2,,stay,red,black,black,NoInc,3200,1,798,1,1,437724,442217,443015,39414,29,398.31,402.803,403.601,28.41,274.405,520.401,246.019,492.015,738.011,InConNoInc
1,pro,cue,2,DMCC8760894,pro_cue_run2_DMCC8760894,B1,o,c,Con,n,2,2,,stay,red,black,black,NoInc,3200,1,915,2,2,449724,454217,455132,39414,30,410.31,414.803,415.718,28.41,274.405,520.401,246.019,492.015,738.011,ConNoInc
1,pro,cue,2,DMCC8760894,pro_cue_run2_DMCC8760894,H5,o,c,Con,l,2,2,,switch,red,black,black,NoInc,2000,1,1658,2,2,461723,466217,467875,39414,31,422.309,426.803,428.461,28.41,274.405,520.401,246.019,492.015,738.011,ConNoInc
1,pro,cue,2,DMCC8760894,pro_cue_run2_DMCC8760894,D4,e,c,InCon,n,1,2,yes,switch,green,black,green,Inc,2000,1,769,1,1,472523,477017,477786,39414,32,433.109,437.603,438.372,28.41,274.405,520.401,246.019,492.015,738.011,InConInc
1,pro,cue,2,DMCC8760894,pro_cue_run2_DMCC8760894,5H,o,c,Con,l,2,2,yes,switch,green,black,green,Inc,3200,1,943,2,2,483323,487816,488759,39414,33,443.909,448.402,449.345,28.41,274.405,520.401,246.019,492.015,738.011,ConInc
1,pro,cue,2,DMCC8760894,pro_cue_run2_DMCC8760894,A2,e,v,Con,n,1,1,,switch,red,black,black,NoInc,4400,1,1025,1,1,495323,499816,500841,39414,34,455.909,460.402,461.427,28.41,274.405,520.401,246.019,492.015,738.011,ConNoInc
1,pro,cue,2,DMCC8760894,pro_cue_run2_DMCC8760894,1A,o,v,InCon,n,2,1,,stay,red,black,black,NoInc,4400,0,766,1,2,508523,513016,513782,39414,35,469.109,473.602,474.368,28.41,274.405,520.401,246.019,492.015,738.011,InConNoInc
1,pro,cue,2,DMCC8760894,pro_cue_run2_DMCC8760894,D4,e,c,InCon,l,1,2,yes,switch,green,black,green,Inc,2000,1,623,2,2,521722,526216,526839,39414,36,482.308,486.802,487.425,28.41,274.405,520.401,246.019,492.015,738.011,InConInc
1,pro,cue,2,DMCC8760894,pro_cue_run2_DMCC8760894,2A,e,v,Con,n,1,1,,,red,black,black,NoInc,4400,1,957,1,1,562522,567015,567972,39414,37,523.108,527.601,528.558,28.41,274.405,520.401,246.019,492.015,738.011,ConNoInc
1,pro,cue,2,DMCC8760894,pro_cue_run2_DMCC8760894,E3,o,v,InCon,l,2,1,yes,switch,green,black,green,Inc,2000,1,566,1,1,575721,580215,580781,39414,38,536.307,540.801,541.367,28.41,274.405,520.401,246.019,492.015,738.011,InConInc
1,pro,cue,2,DMCC8760894,pro_cue_run2_DMCC8760894,H5,o,c,Con,l,2,2,,stay,red,black,black,NoInc,4400,1,1487,2,2,586521,591015,592502,39414,39,547.107,551.601,553.088,28.41,274.405,520.401,246.019,492.015,738.011,ConNoInc
1,pro,cue,2,DMCC8760894,pro_cue_run2_DMCC8760894,B1,o,c,Con,n,2,2,,switch,red,black,black,NoInc,3200,1,894,2,2,599721,604228,605122,39414,40,560.307,564.814,565.708,28.41,274.405,520.401,246.019,492.015,738.011,ConNoInc
1,pro,cue,2,DMCC8760894,pro_cue_run2_DMCC8760894,3E,o,v,InCon,n,2,1,yes,stay,green,black,green,Inc,4400,1,863,2,2,611721,616227,617090,39414,41,572.307,576.813,577.676,28.41,274.405,520.401,246.019,492.015,738.011,InConInc
1,pro,cue,2,DMCC8760894,pro_cue_run2_DMCC8760894,A1,o,v,InCon,l,2,1,,switch,red,black,black,NoInc,2000,1,1561,1,1,624921,629427,630988,39414,42,585.507,590.013,591.574,28.41,274.405,520.401,246.019,492.015,738.011,InConNoInc
1,pro,cue,2,DMCC8760894,pro_cue_run2_DMCC8760894,A2,e,v,Con,l,1,1,,stay,red,black,black,NoInc,3200,1,975,1,1,635720,640227,641202,39414,43,596.306,600.813,601.788,28.41,274.405,520.401,246.019,492.015,738.011,ConNoInc
1,pro,cue,2,DMCC8760894,pro_cue_run2_DMCC8760894,D4,e,c,InCon,l,1,2,yes,stay,green,black,green,Inc,2000,1,783,2,2,647720,652227,653010,39414,44,608.306,612.813,613.596,28.41,274.405,520.401,246.019,492.015,738.011,InConInc
1,pro,cue,2,DMCC8760894,pro_cue_run2_DMCC8760894,4D,e,c,InCon,l,1,2,yes,stay,green,black,green,Inc,3200,1,664,2,2,658520,663027,663691,39414,45,619.106,623.613,624.277,28.41,274.405,520.401,246.019,492.015,738.011,InConInc
1,pro,cue,2,DMCC8760894,pro_cue_run2_DMCC8760894,6I,e,v,Con,n,1,1,,switch,red,black,black,NoInc,3200,1,1123,1,1,670520,675026,676149,39414,46,631.106,635.612,636.735,28.41,274.405,520.401,246.019,492.015,738.011,ConNoInc
1,pro,cue,2,DMCC8760894,pro_cue_run2_DMCC8760894,A2,e,v,Con,n,1,1,,stay,red,black,black,NoInc,3200,1,1063,1,1,682520,687026,688089,39414,47,643.106,647.612,648.675,28.41,274.405,520.401,246.019,492.015,738.011,ConNoInc
1,pro,cue,2,DMCC8760894,pro_cue_run2_DMCC8760894,1B,o,c,Con,l,2,2,,switch,red,black,black,NoInc,3200,0,1491,1,2,694519,699026,700517,39414,48,655.105,659.612,661.103,28.41,274.405,520.401,246.019,492.015,738.011,ConNoInc
1,pro,cue,2,DMCC8760894,pro_cue_run2_DMCC8760894,5H,o,c,Con,n,2,2,,switch,red,black,black,NoInc,2000,1,699,2,2,706519,711026,711725,39414,49,667.105,671.612,672.311,28.41,274.405,520.401,246.019,492.015,738.011,ConNoInc
1,pro,cue,2,DMCC8760894,pro_cue_run2_DMCC8760894,2B,e,c,InCon,l,1,2,,switch,red,black,black,NoInc,2000,1,1490,2,2,717319,721826,723316,39414,50,677.905,682.412,683.902,28.41,274.405,520.401,246.019,492.015,738.011,InConNoInc
1,pro,cue,2,DMCC8760894,pro_cue_run2_DMCC8760894,B1,o,c,Con,l,2,2,,stay,red,black,black,NoInc,4400,1,789,2,2,728119,732625,733414,39414,51,688.705,693.211,694,28.41,274.405,520.401,246.019,492.015,738.011,ConNoInc
1,pro,cue,2,DMCC8760894,pro_cue_run2_DMCC8760894,1B,o,c,Con,n,2,2,,switch,red,black,black,NoInc,4400,1,1265,2,2,741319,745825,747090,39414,52,701.905,706.411,707.676,28.41,274.405,520.401,246.019,492.015,738.011,ConNoInc
1,pro,cue,2,DMCC8760894,pro_cue_run2_DMCC8760894,4D,e,c,InCon,n,1,2,too.slow,stay,green,black,green,Inc,2000,1,1610,1,1,754518,759025,760635,39414,53,715.104,719.611,721.221,28.41,274.405,520.401,246.019,492.015,738.011,InConInc
1,pro,cue,2,DMCC8760894,pro_cue_run2_DMCC8760894,H5,o,c,Con,n,2,2,yes,stay,green,black,green,Inc,4400,1,1071,2,2,765318,769825,770896,39414,54,725.904,730.411,731.482,28.41,274.405,520.401,246.019,492.015,738.011,ConInc
1,rea,cue,1,DMCC8760894,rea_cue_run1_DMCC8760894,4D,e,c,InCon,n,1,2,yes,,red,green,green,Inc,2000,1,1698,1,1,162498,166991,168689,131389,1,31.109,35.602,37.3,28.402,274.414,520.411,246.014,492.012,738.023,InConInc
1,rea,cue,1,DMCC8760894,rea_cue_run1_DMCC8760894,B2,e,c,InCon,n,1,2,,stay,red,black,black,NoInc,2000,1,1589,1,1,173298,177791,179380,131389,2,41.909,46.402,47.991,28.402,274.414,520.411,246.014,492.012,738.023,InConNoInc
1,rea,cue,1,DMCC8760894,rea_cue_run1_DMCC8760894,1A,o,v,InCon,l,2,1,,switch,red,black,black,NoInc,3200,1,814,1,1,184098,188591,189405,131389,3,52.709,57.202,58.016,28.402,274.414,520.411,246.014,492.012,738.023,InConNoInc
1,rea,cue,1,DMCC8760894,rea_cue_run1_DMCC8760894,1B,o,c,Con,l,2,2,,stay,red,black,black,NoInc,2000,1,941,2,2,196098,200591,201532,131389,4,64.709,69.202,70.143,28.402,274.414,520.411,246.014,492.012,738.023,ConNoInc
1,rea,cue,1,DMCC8760894,rea_cue_run1_DMCC8760894,A2,e,v,Con,l,1,1,,stay,red,black,black,NoInc,3200,1,1534,1,1,206898,211391,212925,131389,5,75.509,80.002,81.536,28.402,274.414,520.411,246.014,492.012,738.023,ConNoInc
1,rea,cue,1,DMCC8760894,rea_cue_run1_DMCC8760894,2A,e,v,Con,n,1,1,,switch,red,black,black,NoInc,4400,1,808,1,1,218898,223391,224199,131389,6,87.509,92.002,92.81,28.402,274.414,520.411,246.014,492.012,738.023,ConNoInc
1,rea,cue,1,DMCC8760894,rea_cue_run1_DMCC8760894,B1,o,c,Con,l,2,2,,switch,red,black,black,NoInc,4400,1,1222,2,2,232097,236591,237813,131389,7,100.708,105.202,106.424,28.402,274.414,520.411,246.014,492.012,738.023,ConNoInc
1,rea,cue,1,DMCC8760894,rea_cue_run1_DMCC8760894,I6,e,v,Con,l,1,1,yes,stay,red,green,green,Inc,4400,1,1200,1,1,245297,249791,250991,131389,8,113.908,118.402,119.602,28.402,274.414,520.411,246.014,492.012,738.023,ConInc
1,rea,cue,1,DMCC8760894,rea_cue_run1_DMCC8760894,B1,o,c,Con,n,2,2,,switch,red,black,black,NoInc,3200,1,1110,2,2,258497,263004,264114,131389,9,127.108,131.615,132.725,28.402,274.414,520.411,246.014,492.012,738.023,ConNoInc
1,rea,cue,1,DMCC8760894,rea_cue_run1_DMCC8760894,I6,e,v,Con,n,1,1,,stay,red,black,black,NoInc,3200,1,1300,1,1,270497,275004,276304,131389,10,139.108,143.615,144.915,28.402,274.414,520.411,246.014,492.012,738.023,ConNoInc
1,rea,cue,1,DMCC8760894,rea_cue_run1_DMCC8760894,H5,o,c,Con,l,2,2,,switch,red,black,black,NoInc,4400,1,1633,2,2,282497,287004,288637,131389,11,151.108,155.615,157.248,28.402,274.414,520.411,246.014,492.012,738.023,ConNoInc
1,rea,cue,1,DMCC8760894,rea_cue_run1_DMCC8760894,6I,e,v,Con,n,1,1,yes,switch,red,green,green,Inc,4400,1,988,1,1,295697,300203,301191,131389,12,164.308,168.814,169.802,28.402,274.414,520.411,246.014,492.012,738.023,ConInc
1,rea,cue,1,DMCC8760894,rea_cue_run1_DMCC8760894,1B,o,c,Con,n,2,2,,stay,red,black,black,NoInc,4400,1,989,2,2,308897,313403,314392,131389,13,177.508,182.014,183.003,28.402,274.414,520.411,246.014,492.012,738.023,ConNoInc
1,rea,cue,1,DMCC8760894,rea_cue_run1_DMCC8760894,A2,e,v,Con,n,1,1,,stay,red,black,black,NoInc,3200,1,1131,1,1,322097,326603,327734,131389,14,190.708,195.214,196.345,28.402,274.414,520.411,246.014,492.012,738.023,ConNoInc
1,rea,cue,1,DMCC8760894,rea_cue_run1_DMCC8760894,E3,o,v,InCon,l,2,1,yes,switch,red,green,green,Inc,2000,1,1113,1,1,334096,338603,339716,131389,15,202.707,207.214,208.327,28.402,274.414,520.411,246.014,492.012,738.023,InConInc
1,rea,cue,1,DMCC8760894,rea_cue_run1_DMCC8760894,5H,o,c,Con,l,2,2,,stay,red,black,black,NoInc,2000,1,1058,2,2,344896,349403,350461,131389,16,213.507,218.014,219.072,28.402,274.414,520.411,246.014,492.012,738.023,ConNoInc
1,rea,cue,1,DMCC8760894,rea_cue_run1_DMCC8760894,D4,e,c,InCon,n,1,2,yes,switch,red,green,green,Inc,3200,1,1549,1,1,355696,360203,361752,131389,17,224.307,228.814,230.363,28.402,274.414,520.411,246.014,492.012,738.023,InConInc
1,rea,cue,1,DMCC8760894,rea_cue_run1_DMCC8760894,D4,e,c,InCon,l,1,2,yes,switch,red,green,green,Inc,2000,1,1350,2,2,367696,372203,373553,131389,18,236.307,240.814,242.164,28.402,274.414,520.411,246.014,492.012,738.023,InConInc
1,rea,cue,1,DMCC8760894,rea_cue_run1_DMCC8760894,1B,o,c,Con,l,2,2,,,red,black,black,NoInc,4400,1,901,2,2,408496,413002,413903,131389,19,277.107,281.613,282.514,28.402,274.414,520.411,246.014,492.012,738.023,ConNoInc
1,rea,cue,1,DMCC8760894,rea_cue_run1_DMCC8760894,5H,o,c,Con,n,2,2,yes,switch,red,green,green,Inc,3200,1,1811,2,2,421696,426202,428013,131389,20,290.307,294.813,296.624,28.402,274.414,520.411,246.014,492.012,738.023,ConInc
1,rea,cue,1,DMCC8760894,rea_cue_run1_DMCC8760894,1B,o,c,Con,n,2,2,,stay,red,black,black,NoInc,4400,1,1600,2,2,433696,438202,439802,131389,21,302.307,306.813,308.413,28.402,274.414,520.411,246.014,492.012,738.023,ConNoInc
1,rea,cue,1,DMCC8760894,rea_cue_run1_DMCC8760894,A1,o,v,InCon,n,2,1,,stay,red,black,black,NoInc,2000,1,1709,2,2,446895,451402,453111,131389,22,315.506,320.013,321.722,28.402,274.414,520.411,246.014,492.012,738.023,InConNoInc
1,rea,cue,1,DMCC8760894,rea_cue_run1_DMCC8760894,D4,e,c,InCon,l,1,2,yes,switch,red,green,green,Inc,2000,1,1647,2,2,457695,462202,463849,131389,23,326.306,330.813,332.46,28.402,274.414,520.411,246.014,492.012,738.023,InConInc
1,rea,cue,1,DMCC8760894,rea_cue_run1_DMCC8760894,A2,e,v,Con,n,1,1,,switch,red,black,black,NoInc,4400,1,1872,1,1,468495,473002,474874,131389,24,337.106,341.613,343.485,28.402,274.414,520.411,246.014,492.012,738.023,ConNoInc
1,rea,cue,1,DMCC8760894,rea_cue_run1_DMCC8760894,3E,o,v,InCon,n,2,1,yes,stay,red,green,green,Inc,3200,1,2414,2,2,481695,486202,488616,131389,25,350.306,354.813,357.227,28.402,274.414,520.411,246.014,492.012,738.023,InConInc
1,rea,cue,1,DMCC8760894,rea_cue_run1_DMCC8760894,6I,e,v,Con,n,1,1,,stay,red,black,black,NoInc,2000,1,2332,1,1,493695,498202,500534,131389,26,362.306,366.813,369.145,28.402,274.414,520.411,246.014,492.012,738.023,ConNoInc
1,rea,cue,1,DMCC8760894,rea_cue_run1_DMCC8760894,E3,o,v,InCon,n,2,1,yes,stay,red,green,green,Inc,3200,1,1772,2,2,504495,509002,510774,131389,27,373.106,377.613,379.385,28.402,274.414,520.411,246.014,492.012,738.023,InConInc
1,rea,cue,1,DMCC8760894,rea_cue_run1_DMCC8760894,2B,e,c,InCon,l,1,2,,switch,red,black,black,NoInc,3200,1,2451,2,2,516495,521002,523453,131389,28,385.106,389.613,392.064,28.402,274.414,520.411,246.014,492.012,738.023,InConNoInc
1,rea,cue,1,DMCC8760894,rea_cue_run1_DMCC8760894,3E,o,v,InCon,l,2,1,yes,stay,red,green,green,Inc,2000,1,2175,1,1,528495,533001,535176,131389,29,397.106,401.612,403.787,28.402,274.414,520.411,246.014,492.012,738.023,InConInc
1,rea,cue,1,DMCC8760894,rea_cue_run1_DMCC8760894,B1,o,c,Con,l,2,2,,stay,red,black,black,NoInc,2000,1,1749,2,2,539295,543801,545550,131389,30,407.906,412.412,414.161,28.402,274.414,520.411,246.014,492.012,738.023,ConNoInc
1,rea,cue,1,DMCC8760894,rea_cue_run1_DMCC8760894,2A,e,v,Con,l,1,1,,stay,red,black,black,NoInc,4400,1,1751,1,1,550095,554601,556352,131389,31,418.706,423.212,424.963,28.402,274.414,520.411,246.014,492.012,738.023,ConNoInc
1,rea,cue,1,DMCC8760894,rea_cue_run1_DMCC8760894,2A,e,v,Con,l,1,1,,stay,red,black,black,NoInc,3200,1,1583,1,1,563294,567801,569384,131389,32,431.905,436.412,437.995,28.402,274.414,520.411,246.014,492.012,738.023,ConNoInc
1,rea,cue,1,DMCC8760894,rea_cue_run1_DMCC8760894,I6,e,v,Con,l,1,1,,stay,red,black,black,NoInc,3200,1,1191,1,1,575294,579801,580992,131389,33,443.905,448.412,449.603,28.402,274.414,520.411,246.014,492.012,738.023,ConNoInc
1,rea,cue,1,DMCC8760894,rea_cue_run1_DMCC8760894,E3,o,v,InCon,n,2,1,error,switch,red,green,green,Inc,2000,0,2122,1,2,587294,591801,593923,131389,34,455.905,460.412,462.534,28.402,274.414,520.411,246.014,492.012,738.023,InConInc
1,rea,cue,1,DMCC8760894,rea_cue_run1_DMCC8760894,5H,o,c,Con,l,2,2,,switch,red,black,black,NoInc,4400,1,1311,2,2,598094,602601,603912,131389,35,466.705,471.212,472.523,28.402,274.414,520.411,246.014,492.012,738.023,ConNoInc
1,rea,cue,1,DMCC8760894,rea_cue_run1_DMCC8760894,2A,e,v,Con,n,1,1,,switch,red,black,black,NoInc,4400,1,1329,1,1,611294,615801,617130,131389,36,479.905,484.412,485.741,28.402,274.414,520.411,246.014,492.012,738.023,ConNoInc
1,rea,cue,1,DMCC8760894,rea_cue_run1_DMCC8760894,1B,o,c,Con,n,2,2,,,red,black,black,NoInc,2000,1,1351,2,2,654494,659000,660351,131389,37,523.105,527.611,528.962,28.402,274.414,520.411,246.014,492.012,738.023,ConNoInc
1,rea,cue,1,DMCC8760894,rea_cue_run1_DMCC8760894,6I,e,v,Con,n,1,1,,stay,red,black,black,NoInc,4400,1,851,1,1,665294,669800,670651,131389,38,533.905,538.411,539.262,28.402,274.414,520.411,246.014,492.012,738.023,ConNoInc
1,rea,cue,1,DMCC8760894,rea_cue_run1_DMCC8760894,3E,o,v,InCon,n,2,1,yes,stay,red,green,green,Inc,4400,1,1692,2,2,678493,683000,684692,131389,39,547.104,551.611,553.303,28.402,274.414,520.411,246.014,492.012,738.023,InConInc
1,rea,cue,1,DMCC8760894,rea_cue_run1_DMCC8760894,1B,o,c,Con,l,2,2,,switch,red,black,black,NoInc,2000,1,1398,2,2,691693,696200,697598,131389,40,560.304,564.811,566.209,28.402,274.414,520.411,246.014,492.012,738.023,ConNoInc
1,rea,cue,1,DMCC8760894,rea_cue_run1_DMCC8760894,A2,e,v,Con,l,1,1,,stay,red,black,black,NoInc,4400,1,1168,1,1,702493,707000,708168,131389,41,571.104,575.611,576.779,28.402,274.414,520.411,246.014,492.012,738.023,ConNoInc
1,rea,cue,1,DMCC8760894,rea_cue_run1_DMCC8760894,6I,e,v,Con,l,1,1,,stay,red,black,black,NoInc,2000,1,2575,1,1,715693,720200,722775,131389,42,584.304,588.811,591.386,28.402,274.414,520.411,246.014,492.012,738.023,ConNoInc
1,rea,cue,1,DMCC8760894,rea_cue_run1_DMCC8760894,A2,e,v,Con,n,1,1,,switch,red,black,black,NoInc,3200,1,1970,1,1,726493,731000,732970,131389,43,595.104,599.611,601.581,28.402,274.414,520.411,246.014,492.012,738.023,ConNoInc
1,rea,cue,1,DMCC8760894,rea_cue_run1_DMCC8760894,1A,o,v,InCon,n,2,1,,stay,red,black,black,NoInc,3200,0,2455,1,2,738493,743000,745455,131389,44,607.104,611.611,614.066,28.402,274.414,520.411,246.014,492.012,738.023,InConNoInc
1,rea,cue,1,DMCC8760894,rea_cue_run1_DMCC8760894,B1,o,c,Con,n,2,2,,stay,red,black,black,NoInc,3200,1,1723,2,2,750493,754999,756722,131389,45,619.104,623.61,625.333,28.402,274.414,520.411,246.014,492.012,738.023,ConNoInc
1,rea,cue,1,DMCC8760894,rea_cue_run1_DMCC8760894,H5,o,c,Con,l,2,2,yes,switch,red,green,green,Inc,3200,1,1434,2,2,762493,766999,768433,131389,46,631.104,635.61,637.044,28.402,274.414,520.411,246.014,492.012,738.023,ConInc
1,rea,cue,1,DMCC8760894,rea_cue_run1_DMCC8760894,4D,e,c,InCon,l,1,2,yes,stay,red,green,green,Inc,2000,1,2756,2,2,774493,778999,781755,131389,47,643.104,647.61,650.366,28.402,274.414,520.411,246.014,492.012,738.023,InConInc
1,rea,cue,1,DMCC8760894,rea_cue_run1_DMCC8760894,3E,o,v,InCon,l,2,1,yes,stay,red,green,green,Inc,4400,1,1174,1,1,785293,789799,790973,131389,48,653.904,658.41,659.584,28.402,274.414,520.411,246.014,492.012,738.023,InConInc
1,rea,cue,1,DMCC8760894,rea_cue_run1_DMCC8760894,B1,o,c,Con,l,2,2,,stay,red,black,black,NoInc,4400,1,1657,2,2,798492,802999,804656,131389,49,667.103,671.61,673.267,28.402,274.414,520.411,246.014,492.012,738.023,ConNoInc
1,rea,cue,1,DMCC8760894,rea_cue_run1_DMCC8760894,E3,o,v,InCon,l,2,1,yes,stay,red,green,green,Inc,4400,1,2518,1,1,811692,816199,818717,131389,50,680.303,684.81,687.328,28.402,274.414,520.411,246.014,492.012,738.023,InConInc
1,rea,cue,1,DMCC8760894,rea_cue_run1_DMCC8760894,2A,e,v,Con,n,1,1,,switch,red,black,black,NoInc,2000,1,1593,1,1,824892,829399,830992,131389,51,693.503,698.01,699.603,28.402,274.414,520.411,246.014,492.012,738.023,ConNoInc
1,rea,cue,1,DMCC8760894,rea_cue_run1_DMCC8760894,4D,e,c,InCon,n,1,2,yes,stay,red,green,green,Inc,2000,1,1505,1,1,835692,840199,841704,131389,52,704.303,708.81,710.315,28.402,274.414,520.411,246.014,492.012,738.023,InConInc
1,rea,cue,1,DMCC8760894,rea_cue_run1_DMCC8760894,2A,e,v,Con,l,1,1,,switch,red,black,black,NoInc,3200,1,1480,1,1,846492,850999,852479,131389,53,715.103,719.61,721.09,28.402,274.414,520.411,246.014,492.012,738.023,ConNoInc
1,rea,cue,1,DMCC8760894,rea_cue_run1_DMCC8760894,H5,o,c,Con,n,2,2,,switch,red,black,black,NoInc,3200,1,1545,2,2,858492,862999,864544,131389,54,727.103,731.61,733.155,28.402,274.414,520.411,246.014,492.012,738.023,ConNoInc
1,rea,cue,2,DMCC8760894,rea_cue_run2_DMCC8760894,D4,e,c,InCon,n,1,2,yes,,red,green,green,Inc,3200,1,1161,1,1,74636,79129,80290,43523,1,31.113,35.606,36.767,28.406,274.404,520.402,246.018,492.016,738.013,InConInc
1,rea,cue,2,DMCC8760894,rea_cue_run2_DMCC8760894,2A,e,v,Con,l,1,1,,switch,red,black,black,NoInc,2000,1,2007,1,1,86636,91129,93136,43523,2,43.113,47.606,49.613,28.406,274.404,520.402,246.018,492.016,738.013,ConNoInc
1,rea,cue,2,DMCC8760894,rea_cue_run2_DMCC8760894,H5,o,c,Con,l,2,2,,stay,red,black,black,NoInc,2000,1,1633,2,2,97436,101929,103562,43523,3,53.913,58.406,60.039,28.406,274.404,520.402,246.018,492.016,738.013,ConNoInc
1,rea,cue,2,DMCC8760894,rea_cue_run2_DMCC8760894,E3,o,v,InCon,n,2,1,yes,switch,red,green,green,Inc,3200,1,1379,2,2,108236,112729,114108,43523,4,64.713,69.206,70.585,28.406,274.404,520.402,246.018,492.016,738.013,InConInc
1,rea,cue,2,DMCC8760894,rea_cue_run2_DMCC8760894,6I,e,v,Con,l,1,1,yes,switch,red,green,green,Inc,4400,1,1609,1,1,120236,124729,126338,43523,5,76.713,81.206,82.815,28.406,274.404,520.402,246.018,492.016,738.013,ConInc
1,rea,cue,2,DMCC8760894,rea_cue_run2_DMCC8760894,E3,o,v,InCon,l,2,1,yes,stay,red,green,green,Inc,4400,1,1632,1,1,133435,137929,139561,43523,6,89.912,94.406,96.038,28.406,274.404,520.402,246.018,492.016,738.013,InConInc
1,rea,cue,2,DMCC8760894,rea_cue_run2_DMCC8760894,5H,o,c,Con,n,2,2,,switch,red,black,black,NoInc,2000,0,2459,1,2,146635,151129,153588,43523,7,103.112,107.606,110.065,28.406,274.404,520.402,246.018,492.016,738.013,ConNoInc
1,rea,cue,2,DMCC8760894,rea_cue_run2_DMCC8760894,4D,e,c,InCon,l,1,2,yes,switch,red,green,green,Inc,3200,1,1643,2,2,157435,161928,163571,43523,8,113.912,118.405,120.048,28.406,274.404,520.402,246.018,492.016,738.013,InConInc
1,rea,cue,2,DMCC8760894,rea_cue_run2_DMCC8760894,3E,o,v,InCon,n,2,1,yes,switch,red,green,green,Inc,4400,1,1498,2,2,169435,173928,175426,43523,9,125.912,130.405,131.903,28.406,274.404,520.402,246.018,492.016,738.013,InConInc
1,rea,cue,2,DMCC8760894,rea_cue_run2_DMCC8760894,B1,o,c,Con,l,2,2,,switch,red,black,black,NoInc,4400,1,1527,2,2,182635,187128,188655,43523,10,139.112,143.605,145.132,28.406,274.404,520.402,246.018,492.016,738.013,ConNoInc
1,rea,cue,2,DMCC8760894,rea_cue_run2_DMCC8760894,2A,e,v,Con,n,1,1,,switch,red,black,black,NoInc,2000,1,1479,1,1,195835,200328,201807,43523,11,152.312,156.805,158.284,28.406,274.404,520.402,246.018,492.016,738.013,ConNoInc
1,rea,cue,2,DMCC8760894,rea_cue_run2_DMCC8760894,1B,o,c,Con,n,2,2,,stay,red,black,black,NoInc,4400,1,1323,2,2,206635,211128,212451,43523,12,163.112,167.605,168.928,28.406,274.404,520.402,246.018,492.016,738.013,ConNoInc
1,rea,cue,2,DMCC8760894,rea_cue_run2_DMCC8760894,B1,o,c,Con,n,2,2,,stay,red,black,black,NoInc,2000,1,2640,2,2,219835,224328,226968,43523,13,176.312,180.805,183.445,28.406,274.404,520.402,246.018,492.016,738.013,ConNoInc
1,rea,cue,2,DMCC8760894,rea_cue_run2_DMCC8760894,A2,e,v,Con,n,1,1,,stay,red,black,black,NoInc,3200,1,1387,1,1,230635,235128,236515,43523,14,187.112,191.605,192.992,28.406,274.404,520.402,246.018,492.016,738.013,ConNoInc
1,rea,cue,2,DMCC8760894,rea_cue_run2_DMCC8760894,A2,e,v,Con,l,1,1,,switch,red,black,black,NoInc,2000,1,2608,1,1,242634,247128,249736,43523,15,199.111,203.605,206.213,28.406,274.404,520.402,246.018,492.016,738.013,ConNoInc
1,rea,cue,2,DMCC8760894,rea_cue_run2_DMCC8760894,6I,e,v,Con,n,1,1,,switch,red,black,black,NoInc,4400,1,1537,1,1,253434,257928,259465,43523,16,209.911,214.405,215.942,28.406,274.404,520.402,246.018,492.016,738.013,ConNoInc
1,rea,cue,2,DMCC8760894,rea_cue_run2_DMCC8760894,B2,e,c,InCon,l,1,2,,switch,red,black,black,NoInc,3200,0,0,,2,266634,271128,0,43523,17,223.111,227.605,-43.523,28.406,274.404,520.402,246.018,492.016,738.013,InConNoInc
1,rea,cue,2,DMCC8760894,rea_cue_run2_DMCC8760894,1B,o,c,Con,l,2,2,,stay,red,black,black,NoInc,3200,1,1459,2,2,278634,283127,284586,43523,18,235.111,239.604,241.063,28.406,274.404,520.402,246.018,492.016,738.013,ConNoInc
1,rea,cue,2,DMCC8760894,rea_cue_run2_DMCC8760894,B1,o,c,Con,n,2,2,,,red,black,black,NoInc,4400,1,1210,2,2,320634,325127,326337,43523,19,277.111,281.604,282.814,28.406,274.404,520.402,246.018,492.016,738.013,ConNoInc
1,rea,cue,2,DMCC8760894,rea_cue_run2_DMCC8760894,1A,o,v,InCon,n,2,1,,stay,red,black,black,NoInc,4400,1,1722,2,2,333834,338327,340049,43523,20,290.311,294.804,296.526,28.406,274.404,520.402,246.018,492.016,738.013,InConNoInc
1,rea,cue,2,DMCC8760894,rea_cue_run2_DMCC8760894,2A,e,v,Con,l,1,1,,switch,red,black,black,NoInc,3200,1,1074,1,1,347034,351527,352601,43523,21,303.511,308.004,309.078,28.406,274.404,520.402,246.018,492.016,738.013,ConNoInc
1,rea,cue,2,DMCC8760894,rea_cue_run2_DMCC8760894,4D,e,c,InCon,n,1,2,yes,switch,red,green,green,Inc,3200,1,1174,1,1,359033,363527,364701,43523,22,315.51,320.004,321.178,28.406,274.404,520.402,246.018,492.016,738.013,InConInc
1,rea,cue,2,DMCC8760894,rea_cue_run2_DMCC8760894,H5,o,c,Con,l,2,2,,switch,red,black,black,NoInc,2000,1,2226,2,2,371033,375527,377753,43523,23,327.51,332.004,334.23,28.406,274.404,520.402,246.018,492.016,738.013,ConNoInc
1,rea,cue,2,DMCC8760894,rea_cue_run2_DMCC8760894,D4,e,c,InCon,l,1,2,yes,stay,red,green,green,Inc,4400,1,1594,2,2,381833,386327,387921,43523,24,338.31,342.804,344.398,28.406,274.404,520.402,246.018,492.016,738.013,InConInc
1,rea,cue,2,DMCC8760894,rea_cue_run2_DMCC8760894,3E,o,v,InCon,l,2,1,yes,stay,red,green,green,Inc,2000,1,1549,1,1,395033,399526,401075,43523,25,351.51,356.003,357.552,28.406,274.404,520.402,246.018,492.016,738.013,InConInc
1,rea,cue,2,DMCC8760894,rea_cue_run2_DMCC8760894,A2,e,v,Con,n,1,1,,switch,red,black,black,NoInc,2000,1,991,1,1,405833,410326,411317,43523,26,362.31,366.803,367.794,28.406,274.404,520.402,246.018,492.016,738.013,ConNoInc
1,rea,cue,2,DMCC8760894,rea_cue_run2_DMCC8760894,A2,e,v,Con,l,1,1,,switch,red,black,black,NoInc,3200,1,1097,1,1,416633,421126,422223,43523,27,373.11,377.603,378.7,28.406,274.404,520.402,246.018,492.016,738.013,ConNoInc
1,rea,cue,2,DMCC8760894,rea_cue_run2_DMCC8760894,I6,e,v,Con,n,1,1,,switch,red,black,black,NoInc,3200,1,2047,1,1,428633,433126,435173,43523,28,385.11,389.603,391.65,28.406,274.404,520.402,246.018,492.016,738.013,ConNoInc
1,rea,cue,2,DMCC8760894,rea_cue_run2_DMCC8760894,1B,o,c,Con,l,2,2,,switch,red,black,black,NoInc,4400,1,1477,2,2,440633,445126,446603,43523,29,397.11,401.603,403.08,28.406,274.404,520.402,246.018,492.016,738.013,ConNoInc
1,rea,cue,2,DMCC8760894,rea_cue_run2_DMCC8760894,B1,o,c,Con,l,2,2,,stay,red,black,black,NoInc,4400,1,1396,2,2,453833,458326,459722,43523,30,410.31,414.803,416.199,28.406,274.404,520.402,246.018,492.016,738.013,ConNoInc
1,rea,cue,2,DMCC8760894,rea_cue_run2_DMCC8760894,2A,e,v,Con,n,1,1,,switch,red,black,black,NoInc,2000,1,1405,1,1,467032,471526,472931,43523,31,423.509,428.003,429.408,28.406,274.404,520.402,246.018,492.016,738.013,ConNoInc
1,rea,cue,2,DMCC8760894,rea_cue_run2_DMCC8760894,I6,e,v,Con,l,1,1,,switch,red,black,black,NoInc,3200,1,1613,1,1,477832,482326,483939,43523,32,434.309,438.803,440.416,28.406,274.404,520.402,246.018,492.016,738.013,ConNoInc
1,rea,cue,2,DMCC8760894,rea_cue_run2_DMCC8760894,5H,o,c,Con,l,2,2,yes,stay,red,green,green,Inc,3200,1,1719,2,2,489832,494326,496045,43523,33,446.309,450.803,452.522,28.406,274.404,520.402,246.018,492.016,738.013,ConInc
1,rea,cue,2,DMCC8760894,rea_cue_run2_DMCC8760894,2B,e,c,InCon,n,1,2,,switch,red,black,black,NoInc,4400,1,1629,1,1,501832,506325,507954,43523,34,458.309,462.802,464.431,28.406,274.404,520.402,246.018,492.016,738.013,InConNoInc
1,rea,cue,2,DMCC8760894,rea_cue_run2_DMCC8760894,D4,e,c,InCon,n,1,2,yes,stay,red,green,green,Inc,2000,1,1701,1,1,515032,519525,521226,43523,35,471.509,476.002,477.703,28.406,274.404,520.402,246.018,492.016,738.013,InConInc
1,rea,cue,2,DMCC8760894,rea_cue_run2_DMCC8760894,I6,e,v,Con,n,1,1,yes,stay,red,green,green,Inc,2000,1,1506,1,1,525832,530325,531831,43523,36,482.309,486.802,488.308,28.406,274.404,520.402,246.018,492.016,738.013,ConInc
1,rea,cue,2,DMCC8760894,rea_cue_run2_DMCC8760894,2B,e,c,InCon,l,1,2,,,red,black,black,NoInc,2000,1,1582,2,2,566632,571125,572707,43523,37,523.109,527.602,529.184,28.406,274.404,520.402,246.018,492.016,738.013,InConNoInc
1,rea,cue,2,DMCC8760894,rea_cue_run2_DMCC8760894,A2,e,v,Con,l,1,1,,stay,red,black,black,NoInc,3200,1,1206,1,1,577432,581925,583131,43523,38,533.909,538.402,539.608,28.406,274.404,520.402,246.018,492.016,738.013,ConNoInc
1,rea,cue,2,DMCC8760894,rea_cue_run2_DMCC8760894,E3,o,v,InCon,l,2,1,yes,stay,red,green,green,Inc,4400,1,1258,1,1,589431,593925,595183,43523,39,545.908,550.402,551.66,28.406,274.404,520.402,246.018,492.016,738.013,InConInc
1,rea,cue,2,DMCC8760894,rea_cue_run2_DMCC8760894,A1,o,v,InCon,l,2,1,,stay,red,black,black,NoInc,3200,1,1472,1,1,602631,607125,608597,43523,40,559.108,563.602,565.074,28.406,274.404,520.402,246.018,492.016,738.013,InConNoInc
1,rea,cue,2,DMCC8760894,rea_cue_run2_DMCC8760894,1B,o,c,Con,n,2,2,,switch,red,black,black,NoInc,3200,1,2925,2,2,614631,619138,622063,43523,41,571.108,575.615,578.54,28.406,274.404,520.402,246.018,492.016,738.013,ConNoInc
1,rea,cue,2,DMCC8760894,rea_cue_run2_DMCC8760894,5H,o,c,Con,n,2,2,,stay,red,black,black,NoInc,4400,1,1572,2,2,626631,631138,632710,43523,42,583.108,587.615,589.187,28.406,274.404,520.402,246.018,492.016,738.013,ConNoInc
1,rea,cue,2,DMCC8760894,rea_cue_run2_DMCC8760894,B1,o,c,Con,n,2,2,,stay,red,black,black,NoInc,4400,1,2089,2,2,639831,644338,646427,43523,43,596.308,600.815,602.904,28.406,274.404,520.402,246.018,492.016,738.013,ConNoInc
1,rea,cue,2,DMCC8760894,rea_cue_run2_DMCC8760894,D4,e,c,InCon,l,1,2,yes,switch,red,green,green,Inc,2000,1,2236,2,2,653031,657537,659773,43523,44,609.508,614.014,616.25,28.406,274.404,520.402,246.018,492.016,738.013,InConInc
1,rea,cue,2,DMCC8760894,rea_cue_run2_DMCC8760894,6I,e,v,Con,n,1,1,,switch,red,black,black,NoInc,2000,1,1202,1,1,663831,668337,669539,43523,45,620.308,624.814,626.016,28.406,274.404,520.402,246.018,492.016,738.013,ConNoInc
1,rea,cue,2,DMCC8760894,rea_cue_run2_DMCC8760894,B1,o,c,Con,l,2,2,,switch,red,black,black,NoInc,4400,1,1540,2,2,674631,679137,680677,43523,46,631.108,635.614,637.154,28.406,274.404,520.402,246.018,492.016,738.013,ConNoInc
1,rea,cue,2,DMCC8760894,rea_cue_run2_DMCC8760894,H5,o,c,Con,n,2,2,yes,switch,red,green,green,Inc,3200,1,2763,2,2,687831,692337,695100,43523,47,644.308,648.814,651.577,28.406,274.404,520.402,246.018,492.016,738.013,ConInc
1,rea,cue,2,DMCC8760894,rea_cue_run2_DMCC8760894,3E,o,v,InCon,n,2,1,yes,stay,red,green,green,Inc,3200,1,1523,2,2,699830,704337,705860,43523,48,656.307,660.814,662.337,28.406,274.404,520.402,246.018,492.016,738.013,InConInc
1,rea,cue,2,DMCC8760894,rea_cue_run2_DMCC8760894,1B,o,c,Con,l,2,2,,switch,red,black,black,NoInc,2000,1,1421,2,2,711830,716337,717758,43523,49,668.307,672.814,674.235,28.406,274.404,520.402,246.018,492.016,738.013,ConNoInc
1,rea,cue,2,DMCC8760894,rea_cue_run2_DMCC8760894,A2,e,v,Con,n,1,1,,switch,red,black,black,NoInc,4400,1,1996,1,1,722630,727137,729133,43523,50,679.107,683.614,685.61,28.406,274.404,520.402,246.018,492.016,738.013,ConNoInc
1,rea,cue,2,DMCC8760894,rea_cue_run2_DMCC8760894,2A,e,v,Con,n,1,1,,stay,red,black,black,NoInc,3200,1,1048,1,1,735830,740337,741385,43523,51,692.307,696.814,697.862,28.406,274.404,520.402,246.018,492.016,738.013,ConNoInc
1,rea,cue,2,DMCC8760894,rea_cue_run2_DMCC8760894,H5,o,c,Con,l,2,2,,switch,red,black,black,NoInc,2000,1,1765,2,2,747830,752337,754102,43523,52,704.307,708.814,710.579,28.406,274.404,520.402,246.018,492.016,738.013,ConNoInc
1,rea,cue,2,DMCC8760894,rea_cue_run2_DMCC8760894,4D,e,c,InCon,l,1,2,yes,stay,red,green,green,Inc,2000,1,2941,2,2,758630,763137,766078,43523,53,715.107,719.614,722.555,28.406,274.404,520.402,246.018,492.016,738.013,InConInc
1,rea,cue,2,DMCC8760894,rea_cue_run2_DMCC8760894,4D,e,c,InCon,n,1,2,yes,switch,red,green,green,Inc,4400,1,1479,1,1,769430,773936,775415,43523,54,725.907,730.413,731.892,28.406,274.404,520.402,246.018,492.016,738.013,InConInc
3,bas,cue,1,DMCC8760894,bas_cue_run1_DMCC8760894,1B,o,c,Con,l,2,2,,,red,black,black,NoInc,3200,1,1032,2,2,105853,110346,111378,74732,1,31.121,35.614,36.646,28.427,274.427,520.427,246.029,492.028,738.028,ConNoInc
3,bas,cue,1,DMCC8760894,bas_cue_run1_DMCC8760894,A2,e,v,Con,n,1,1,,switch,red,black,black,NoInc,4400,1,946,1,1,117852,122358,123304,74732,2,43.12,47.626,48.572,28.427,274.427,520.427,246.029,492.028,738.028,ConNoInc
3,bas,cue,1,DMCC8760894,bas_cue_run1_DMCC8760894,B1,o,c,Con,l,2,2,,switch,red,black,black,NoInc,2000,1,1367,2,2,131051,135558,136925,74732,3,56.319,60.826,62.193,28.427,274.427,520.427,246.029,492.028,738.028,ConNoInc
3,bas,cue,1,DMCC8760894,bas_cue_run1_DMCC8760894,5H,o,c,Con,l,2,2,,stay,red,black,black,NoInc,2000,1,931,2,2,141851,146357,147288,74732,4,67.119,71.625,72.556,28.427,274.427,520.427,246.029,492.028,738.028,ConNoInc
3,bas,cue,1,DMCC8760894,bas_cue_run1_DMCC8760894,I6,e,v,Con,n,1,1,,switch,red,black,black,NoInc,3200,1,1005,1,1,152650,157156,158161,74732,5,77.918,82.424,83.429,28.427,274.427,520.427,246.029,492.028,738.028,ConNoInc
3,bas,cue,1,DMCC8760894,bas_cue_run1_DMCC8760894,A2,e,v,Con,l,1,1,,switch,red,black,black,NoInc,3200,1,1337,1,1,164649,169156,170493,74732,6,89.917,94.424,95.761,28.427,274.427,520.427,246.029,492.028,738.028,ConNoInc
3,bas,cue,1,DMCC8760894,bas_cue_run1_DMCC8760894,D4,e,c,InCon,l,1,2,,stay,red,black,green,Inc,2000,1,803,2,2,176649,181155,181958,74732,7,101.917,106.423,107.226,28.427,274.427,520.427,246.029,492.028,738.028,InConInc
3,bas,cue,1,DMCC8760894,bas_cue_run1_DMCC8760894,D4,e,c,InCon,n,1,2,,switch,red,black,green,Inc,4400,1,1164,1,1,187448,191954,193118,74732,8,112.716,117.222,118.386,28.427,274.427,520.427,246.029,492.028,738.028,InConInc
3,bas,cue,1,DMCC8760894,bas_cue_run1_DMCC8760894,B2,e,c,InCon,n,1,2,,stay,red,black,black,NoInc,4400,1,854,1,1,200647,205154,206008,74732,9,125.915,130.422,131.276,28.427,274.427,520.427,246.029,492.028,738.028,InConNoInc
3,bas,cue,1,DMCC8760894,bas_cue_run1_DMCC8760894,B1,o,c,Con,n,2,2,,stay,red,black,black,NoInc,4400,1,1128,2,2,213847,218353,219481,74732,10,139.115,143.621,144.749,28.427,274.427,520.427,246.029,492.028,738.028,ConNoInc
3,bas,cue,1,DMCC8760894,bas_cue_run1_DMCC8760894,6I,e,v,Con,n,1,1,,stay,red,black,green,Inc,3200,1,1051,1,1,227046,231552,232603,74732,11,152.314,156.82,157.871,28.427,274.427,520.427,246.029,492.028,738.028,ConInc
3,bas,cue,1,DMCC8760894,bas_cue_run1_DMCC8760894,2A,e,v,Con,n,1,1,,stay,red,black,black,NoInc,2000,1,1108,1,1,239059,243552,244660,74732,12,164.327,168.82,169.928,28.427,274.427,520.427,246.029,492.028,738.028,ConNoInc
3,bas,cue,1,DMCC8760894,bas_cue_run1_DMCC8760894,4D,e,c,InCon,n,1,2,,stay,red,black,green,Inc,3200,1,771,1,1,249858,254351,255122,74732,13,175.126,179.619,180.39,28.427,274.427,520.427,246.029,492.028,738.028,InConInc
3,bas,cue,1,DMCC8760894,bas_cue_run1_DMCC8760894,1B,o,c,Con,n,2,2,,stay,red,black,black,NoInc,2000,1,2031,2,2,261857,266350,268381,74732,14,187.125,191.618,193.649,28.427,274.427,520.427,246.029,492.028,738.028,ConNoInc
3,bas,cue,1,DMCC8760894,bas_cue_run1_DMCC8760894,E3,o,v,InCon,l,2,1,,switch,red,black,green,Inc,2000,0,3178,2,1,272657,277150,280328,74732,15,197.925,202.418,205.596,28.427,274.427,520.427,246.029,492.028,738.028,InConInc
3,bas,cue,1,DMCC8760894,bas_cue_run1_DMCC8760894,1A,o,v,InCon,l,2,1,,stay,red,black,black,NoInc,3200,1,691,1,1,283456,287949,288640,74732,16,208.724,213.217,213.908,28.427,274.427,520.427,246.029,492.028,738.028,InConNoInc
3,bas,cue,1,DMCC8760894,bas_cue_run1_DMCC8760894,I6,e,v,Con,l,1,1,,stay,red,black,green,Inc,4400,1,923,1,1,295455,299949,300872,74732,17,220.723,225.217,226.14,28.427,274.427,520.427,246.029,492.028,738.028,ConInc
3,bas,cue,1,DMCC8760894,bas_cue_run1_DMCC8760894,H5,o,c,Con,l,2,2,,stay,red,black,black,NoInc,4400,1,647,2,2,308655,313148,313795,74732,18,233.923,238.416,239.063,28.427,274.427,520.427,246.029,492.028,738.028,ConNoInc
3,bas,cue,1,DMCC8760894,bas_cue_run1_DMCC8760894,2A,e,v,Con,l,1,1,,,red,black,black,NoInc,2000,1,761,1,1,351852,356359,357120,74732,19,277.12,281.627,282.388,28.427,274.427,520.427,246.029,492.028,738.028,ConNoInc
3,bas,cue,1,DMCC8760894,bas_cue_run1_DMCC8760894,5H,o,c,Con,l,2,2,,stay,red,black,black,NoInc,2000,1,653,2,2,362652,367158,367811,74732,20,287.92,292.426,293.079,28.427,274.427,520.427,246.029,492.028,738.028,ConNoInc
3,bas,cue,1,DMCC8760894,bas_cue_run1_DMCC8760894,2B,e,c,InCon,l,1,2,,stay,red,black,black,NoInc,4400,1,1356,2,2,373451,377958,379314,74732,21,298.719,303.226,304.582,28.427,274.427,520.427,246.029,492.028,738.028,InConNoInc
3,bas,cue,1,DMCC8760894,bas_cue_run1_DMCC8760894,1B,o,c,Con,n,2,2,,switch,red,black,black,NoInc,2000,1,1244,2,2,386650,391157,392401,74732,22,311.918,316.425,317.669,28.427,274.427,520.427,246.029,492.028,738.028,ConNoInc
3,bas,cue,1,DMCC8760894,bas_cue_run1_DMCC8760894,I6,e,v,Con,l,1,1,,switch,red,black,black,NoInc,3200,1,1436,1,1,397450,401956,403392,74732,23,322.718,327.224,328.66,28.427,274.427,520.427,246.029,492.028,738.028,ConNoInc
3,bas,cue,1,DMCC8760894,bas_cue_run1_DMCC8760894,E3,o,v,InCon,n,2,1,,switch,red,black,green,Inc,3200,1,1019,2,2,409449,413955,414974,74732,24,334.717,339.223,340.242,28.427,274.427,520.427,246.029,492.028,738.028,InConInc
3,bas,cue,1,DMCC8760894,bas_cue_run1_DMCC8760894,D4,e,c,InCon,l,1,2,,switch,red,black,green,Inc,4400,1,1891,2,2,421448,425955,427846,74732,25,346.716,351.223,353.114,28.427,274.427,520.427,246.029,492.028,738.028,InConInc
3,bas,cue,1,DMCC8760894,bas_cue_run1_DMCC8760894,6I,e,v,Con,n,1,1,,switch,red,black,black,NoInc,3200,1,981,1,1,434648,439154,440135,74732,26,359.916,364.422,365.403,28.427,274.427,520.427,246.029,492.028,738.028,ConNoInc
3,bas,cue,1,DMCC8760894,bas_cue_run1_DMCC8760894,3E,o,v,InCon,l,2,1,,switch,red,black,green,Inc,4400,1,888,1,1,446647,451153,452041,74732,27,371.915,376.421,377.309,28.427,274.427,520.427,246.029,492.028,738.028,InConInc
3,bas,cue,1,DMCC8760894,bas_cue_run1_DMCC8760894,3E,o,v,InCon,n,2,1,,switch,red,black,green,Inc,3200,1,891,2,2,459846,464353,465244,74732,28,385.114,389.621,390.512,28.427,274.427,520.427,246.029,492.028,738.028,InConInc
3,bas,cue,1,DMCC8760894,bas_cue_run1_DMCC8760894,E3,o,v,InCon,n,2,1,,stay,red,black,green,Inc,4400,1,1106,2,2,471846,476352,477458,74732,29,397.114,401.62,402.726,28.427,274.427,520.427,246.029,492.028,738.028,InConInc
3,bas,cue,1,DMCC8760894,bas_cue_run1_DMCC8760894,1B,o,c,Con,l,2,2,,switch,red,black,black,NoInc,2000,1,1312,2,2,485058,489551,490863,74732,30,410.326,414.819,416.131,28.427,274.427,520.427,246.029,492.028,738.028,ConNoInc
3,bas,cue,1,DMCC8760894,bas_cue_run1_DMCC8760894,A2,e,v,Con,n,1,1,,switch,red,black,black,NoInc,4400,1,1077,1,1,495858,500351,501428,74732,31,421.126,425.619,426.696,28.427,274.427,520.427,246.029,492.028,738.028,ConNoInc
3,bas,cue,1,DMCC8760894,bas_cue_run1_DMCC8760894,A1,o,v,InCon,n,2,1,,stay,red,black,black,NoInc,3200,0,701,1,2,509057,513550,514251,74732,32,434.325,438.818,439.519,28.427,274.427,520.427,246.029,492.028,738.028,InConNoInc
3,bas,cue,1,DMCC8760894,bas_cue_run1_DMCC8760894,B1,o,c,Con,l,2,2,,switch,red,black,black,NoInc,2000,1,1443,2,2,521056,525549,526992,74732,33,446.324,450.817,452.26,28.427,274.427,520.427,246.029,492.028,738.028,ConNoInc
3,bas,cue,1,DMCC8760894,bas_cue_run1_DMCC8760894,5H,o,c,Con,n,2,2,,switch,red,black,green,Inc,3200,1,999,2,2,531856,536349,537348,74732,34,457.124,461.617,462.616,28.427,274.427,520.427,246.029,492.028,738.028,ConInc
3,bas,cue,1,DMCC8760894,bas_cue_run1_DMCC8760894,2A,e,v,Con,l,1,1,,switch,red,black,black,NoInc,2000,1,969,1,1,543855,548348,549317,74732,35,469.123,473.616,474.585,28.427,274.427,520.427,246.029,492.028,738.028,ConNoInc
3,bas,cue,1,DMCC8760894,bas_cue_run1_DMCC8760894,2A,e,v,Con,n,1,1,,switch,red,black,black,NoInc,4400,1,716,1,1,554654,559147,559863,74732,36,479.922,484.415,485.131,28.427,274.427,520.427,246.029,492.028,738.028,ConNoInc
3,bas,cue,1,DMCC8760894,bas_cue_run1_DMCC8760894,6I,e,v,Con,n,1,1,,,red,black,black,NoInc,3200,1,1027,1,1,597852,602358,603385,74732,37,523.12,527.626,528.653,28.427,274.427,520.427,246.029,492.028,738.028,ConNoInc
3,bas,cue,1,DMCC8760894,bas_cue_run1_DMCC8760894,3E,o,v,InCon,n,2,1,,stay,red,black,green,Inc,4400,1,1001,2,2,609851,614358,615359,74732,38,535.119,539.626,540.627,28.427,274.427,520.427,246.029,492.028,738.028,InConInc
3,bas,cue,1,DMCC8760894,bas_cue_run1_DMCC8760894,1A,o,v,InCon,n,2,1,,stay,red,black,black,NoInc,2000,0,1290,1,2,623051,627557,628847,74732,39,548.319,552.825,554.115,28.427,274.427,520.427,246.029,492.028,738.028,InConNoInc
3,bas,cue,1,DMCC8760894,bas_cue_run1_DMCC8760894,1B,o,c,Con,l,2,2,,switch,red,black,black,NoInc,2000,1,1009,2,2,633850,638356,639365,74732,40,559.118,563.624,564.633,28.427,274.427,520.427,246.029,492.028,738.028,ConNoInc
3,bas,cue,1,DMCC8760894,bas_cue_run1_DMCC8760894,4D,e,c,InCon,n,1,2,,switch,red,black,green,Inc,3200,0,2404,2,1,644649,649156,651560,74732,41,569.917,574.424,576.828,28.427,274.427,520.427,246.029,492.028,738.028,InConInc
3,bas,cue,1,DMCC8760894,bas_cue_run1_DMCC8760894,H5,o,c,Con,n,2,2,,stay,red,black,black,NoInc,2000,0,0,,2,656649,661155,0,74732,42,581.917,586.423,-74.732,28.427,274.427,520.427,246.029,492.028,738.028,ConNoInc
3,bas,cue,1,DMCC8760894,bas_cue_run1_DMCC8760894,H5,o,c,Con,l,2,2,,switch,red,black,green,Inc,4400,1,1484,2,2,667448,671954,673438,74732,43,592.716,597.222,598.706,28.427,274.427,520.427,246.029,492.028,738.028,ConInc
3,bas,cue,1,DMCC8760894,bas_cue_run1_DMCC8760894,2A,e,v,Con,l,1,1,,stay,red,black,black,NoInc,4400,1,849,1,1,680647,685154,686003,74732,44,605.915,610.422,611.271,28.427,274.427,520.427,246.029,492.028,738.028,ConNoInc
3,bas,cue,1,DMCC8760894,bas_cue_run1_DMCC8760894,B1,o,c,Con,l,2,2,,stay,red,black,black,NoInc,3200,1,768,2,2,693847,698353,699121,74732,45,619.115,623.621,624.389,28.427,274.427,520.427,246.029,492.028,738.028,ConNoInc
3,bas,cue,1,DMCC8760894,bas_cue_run1_DMCC8760894,A2,e,v,Con,n,1,1,,switch,red,black,black,NoInc,3200,0,0,,1,705846,710352,0,74732,46,631.114,635.62,-74.732,28.427,274.427,520.427,246.029,492.028,738.028,ConNoInc
3,bas,cue,1,DMCC8760894,bas_cue_run1_DMCC8760894,4D,e,c,InCon,l,1,2,,switch,red,black,green,Inc,4400,0,0,,2,717859,722352,0,74732,47,643.127,647.62,-74.732,28.427,274.427,520.427,246.029,492.028,738.028,InConInc
3,bas,cue,1,DMCC8760894,bas_cue_run1_DMCC8760894,3E,o,v,InCon,l,2,1,,stay,red,black,green,Inc,2000,0,0,,1,731058,735551,0,74732,48,656.326,660.819,-74.732,28.427,274.427,520.427,246.029,492.028,738.028,InConInc
3,bas,cue,1,DMCC8760894,bas_cue_run1_DMCC8760894,2A,e,v,Con,n,1,1,,switch,red,black,black,NoInc,3200,1,833,1,1,741857,746350,747183,74732,49,667.125,671.618,672.451,28.427,274.427,520.427,246.029,492.028,738.028,ConNoInc
3,bas,cue,1,DMCC8760894,bas_cue_run1_DMCC8760894,1B,o,c,Con,n,2,2,,stay,red,black,black,NoInc,2000,1,951,2,2,753857,758350,759301,74732,50,679.125,683.618,684.569,28.427,274.427,520.427,246.029,492.028,738.028,ConNoInc
3,bas,cue,1,DMCC8760894,bas_cue_run1_DMCC8760894,6I,e,v,Con,l,1,1,,switch,red,black,black,NoInc,4400,1,1092,1,1,764656,769149,770241,74732,51,689.924,694.417,695.509,28.427,274.427,520.427,246.029,492.028,738.028,ConNoInc
3,bas,cue,1,DMCC8760894,bas_cue_run1_DMCC8760894,A2,e,v,Con,l,1,1,,stay,red,black,black,NoInc,3200,1,743,1,1,777855,782348,783091,74732,52,703.123,707.616,708.359,28.427,274.427,520.427,246.029,492.028,738.028,ConNoInc
3,bas,cue,1,DMCC8760894,bas_cue_run1_DMCC8760894,E3,o,v,InCon,l,2,1,,stay,red,black,green,Inc,4400,1,888,1,1,789855,794348,795236,74732,53,715.123,719.616,720.504,28.427,274.427,520.427,246.029,492.028,738.028,InConInc
3,bas,cue,1,DMCC8760894,bas_cue_run1_DMCC8760894,B1,o,c,Con,n,2,2,,switch,red,black,black,NoInc,2000,0,0,,2,803054,807547,0,74732,54,728.322,732.815,-74.732,28.427,274.427,520.427,246.029,492.028,738.028,ConNoInc
3,bas,cue,2,DMCC8760894,bas_cue_run2_DMCC8760894,B1,o,c,Con,l,2,2,,,red,black,black,NoInc,3200,1,926,2,2,75674,80167,81093,44555,1,31.119,35.612,36.538,28.412,274.412,520.412,246.027,492.027,738.026,ConNoInc
3,bas,cue,2,DMCC8760894,bas_cue_run2_DMCC8760894,E3,o,v,InCon,n,2,1,,switch,red,black,green,Inc,3200,1,1079,2,2,87673,92166,93245,44555,2,43.118,47.611,48.69,28.412,274.412,520.412,246.027,492.027,738.026,InConInc
3,bas,cue,2,DMCC8760894,bas_cue_run2_DMCC8760894,6I,e,v,Con,n,1,1,,stay,red,black,black,NoInc,3200,1,1029,1,1,99673,104166,105195,44555,3,55.118,59.611,60.64,28.412,274.412,520.412,246.027,492.027,738.026,ConNoInc
3,bas,cue,2,DMCC8760894,bas_cue_run2_DMCC8760894,2A,e,v,Con,l,1,1,,switch,red,black,black,NoInc,4400,1,574,1,1,111672,116165,116739,44555,4,67.117,71.61,72.184,28.412,274.412,520.412,246.027,492.027,738.026,ConNoInc
3,bas,cue,2,DMCC8760894,bas_cue_run2_DMCC8760894,4D,e,c,InCon,l,1,2,,stay,red,black,green,Inc,2000,1,1059,2,2,124871,129364,130423,44555,5,80.316,84.809,85.868,28.412,274.412,520.412,246.027,492.027,738.026,InConInc
3,bas,cue,2,DMCC8760894,bas_cue_run2_DMCC8760894,B1,o,c,Con,n,2,2,,switch,red,black,black,NoInc,4400,1,1567,2,2,135671,140164,141731,44555,6,91.116,95.609,97.176,28.412,274.412,520.412,246.027,492.027,738.026,ConNoInc
3,bas,cue,2,DMCC8760894,bas_cue_run2_DMCC8760894,3E,o,v,InCon,n,2,1,,stay,red,black,green,Inc,4400,1,834,2,2,148870,153363,154197,44555,7,104.315,108.808,109.642,28.412,274.412,520.412,246.027,492.027,738.026,InConInc
3,bas,cue,2,DMCC8760894,bas_cue_run2_DMCC8760894,2A,e,v,Con,n,1,1,,stay,red,black,black,NoInc,2000,1,930,1,1,162069,166562,167492,44555,8,117.514,122.007,122.937,28.412,274.412,520.412,246.027,492.027,738.026,ConNoInc
3,bas,cue,2,DMCC8760894,bas_cue_run2_DMCC8760894,1B,o,c,Con,n,2,2,,stay,red,black,black,NoInc,2000,1,725,2,2,172869,177375,178100,44555,9,128.314,132.82,133.545,28.412,274.412,520.412,246.027,492.027,738.026,ConNoInc
3,bas,cue,2,DMCC8760894,bas_cue_run2_DMCC8760894,1B,o,c,Con,l,2,2,,switch,red,black,black,NoInc,3200,1,1381,2,2,183668,188174,189555,44555,10,139.113,143.619,145,28.412,274.412,520.412,246.027,492.027,738.026,ConNoInc
3,bas,cue,2,DMCC8760894,bas_cue_run2_DMCC8760894,A2,e,v,Con,n,1,1,,switch,red,black,black,NoInc,2000,1,865,1,1,195667,200174,201039,44555,11,151.112,155.619,156.484,28.412,274.412,520.412,246.027,492.027,738.026,ConNoInc
3,bas,cue,2,DMCC8760894,bas_cue_run2_DMCC8760894,D4,e,c,InCon,n,1,2,,stay,red,black,green,Inc,4400,1,974,1,1,206467,210973,211947,44555,12,161.912,166.418,167.392,28.412,274.412,520.412,246.027,492.027,738.026,InConInc
3,bas,cue,2,DMCC8760894,bas_cue_run2_DMCC8760894,5H,o,c,Con,n,2,2,,stay,red,black,black,NoInc,4400,1,1413,2,2,219666,224172,225585,44555,13,175.111,179.617,181.03,28.412,274.412,520.412,246.027,492.027,738.026,ConNoInc
3,bas,cue,2,DMCC8760894,bas_cue_run2_DMCC8760894,B2,e,c,InCon,l,1,2,,switch,red,black,black,NoInc,2000,1,1101,2,2,232865,237372,238473,44555,14,188.31,192.817,193.918,28.412,274.412,520.412,246.027,492.027,738.026,InConNoInc
3,bas,cue,2,DMCC8760894,bas_cue_run2_DMCC8760894,H5,o,c,Con,l,2,2,,stay,red,black,black,NoInc,2000,1,1885,2,2,243665,248171,250056,44555,15,199.11,203.616,205.501,28.412,274.412,520.412,246.027,492.027,738.026,ConNoInc
3,bas,cue,2,DMCC8760894,bas_cue_run2_DMCC8760894,E3,o,v,InCon,l,2,1,,stay,red,black,green,Inc,3200,0,1292,2,1,254464,258970,260262,44555,16,209.909,214.415,215.707,28.412,274.412,520.412,246.027,492.027,738.026,InConInc
3,bas,cue,2,DMCC8760894,bas_cue_run2_DMCC8760894,A2,e,v,Con,l,1,1,,stay,red,black,black,NoInc,4400,1,695,1,1,266463,270970,271665,44555,17,221.908,226.415,227.11,28.412,274.412,520.412,246.027,492.027,738.026,ConNoInc
3,bas,cue,2,DMCC8760894,bas_cue_run2_DMCC8760894,6I,e,v,Con,l,1,1,,stay,red,black,green,Inc,3200,1,1396,1,1,279663,284169,285565,44555,18,235.108,239.614,241.01,28.412,274.412,520.412,246.027,492.027,738.026,ConInc
3,bas,cue,2,DMCC8760894,bas_cue_run2_DMCC8760894,5H,o,c,Con,l,2,2,,,red,black,green,Inc,2000,1,1508,2,2,321674,326167,327675,44555,19,277.119,281.612,283.12,28.412,274.412,520.412,246.027,492.027,738.026,ConInc
3,bas,cue,2,DMCC8760894,bas_cue_run2_DMCC8760894,3E,o,v,InCon,l,2,1,,stay,red,black,green,Inc,3200,1,1234,1,1,332473,336966,338200,44555,20,287.918,292.411,293.645,28.412,274.412,520.412,246.027,492.027,738.026,InConInc
3,bas,cue,2,DMCC8760894,bas_cue_run2_DMCC8760894,2B,e,c,InCon,n,1,2,,switch,red,black,black,NoInc,2000,1,837,1,1,344472,348965,349802,44555,21,299.917,304.41,305.247,28.412,274.412,520.412,246.027,492.027,738.026,InConNoInc
3,bas,cue,2,DMCC8760894,bas_cue_run2_DMCC8760894,B1,o,c,Con,n,2,2,,stay,red,black,black,NoInc,3200,1,2318,2,2,355272,359765,362083,44555,22,310.717,315.21,317.528,28.412,274.412,520.412,246.027,492.027,738.026,ConNoInc
3,bas,cue,2,DMCC8760894,bas_cue_run2_DMCC8760894,I6,e,v,Con,n,1,1,,stay,red,black,green,Inc,4400,1,1060,1,1,367271,371764,372824,44555,23,322.716,327.209,328.269,28.412,274.412,520.412,246.027,492.027,738.026,ConInc
3,bas,cue,2,DMCC8760894,bas_cue_run2_DMCC8760894,A2,e,v,Con,l,1,1,,switch,red,black,black,NoInc,3200,1,1157,1,1,380470,384963,386120,44555,24,335.915,340.408,341.565,28.412,274.412,520.412,246.027,492.027,738.026,ConNoInc
3,bas,cue,2,DMCC8760894,bas_cue_run2_DMCC8760894,D4,e,c,InCon,l,1,2,,stay,red,black,green,Inc,4400,0,762,1,2,392470,396963,397725,44555,25,347.915,352.408,353.17,28.412,274.412,520.412,246.027,492.027,738.026,InConInc
3,bas,cue,2,DMCC8760894,bas_cue_run2_DMCC8760894,4D,e,c,InCon,n,1,2,,switch,red,black,green,Inc,4400,0,2196,2,1,405669,410162,412358,44555,26,361.114,365.607,367.803,28.412,274.412,520.412,246.027,492.027,738.026,InConInc
3,bas,cue,2,DMCC8760894,bas_cue_run2_DMCC8760894,H5,o,c,Con,l,2,2,,switch,red,black,black,NoInc,2000,0,1765,1,2,418868,423375,425140,44555,27,374.313,378.82,380.585,28.412,274.412,520.412,246.027,492.027,738.026,ConNoInc
3,bas,cue,2,DMCC8760894,bas_cue_run2_DMCC8760894,B1,o,c,Con,l,2,2,,stay,red,black,black,NoInc,2000,1,1163,2,2,429668,434174,435337,44555,28,385.113,389.619,390.782,28.412,274.412,520.412,246.027,492.027,738.026,ConNoInc
3,bas,cue,2,DMCC8760894,bas_cue_run2_DMCC8760894,A2,e,v,Con,n,1,1,,switch,red,black,black,NoInc,3200,1,767,1,1,440467,444973,445740,44555,29,395.912,400.418,401.185,28.412,274.412,520.412,246.027,492.027,738.026,ConNoInc
3,bas,cue,2,DMCC8760894,bas_cue_run2_DMCC8760894,2A,e,v,Con,l,1,1,,switch,red,black,black,NoInc,2000,1,2101,1,1,452466,456973,459074,44555,30,407.911,412.418,414.519,28.412,274.412,520.412,246.027,492.027,738.026,ConNoInc
3,bas,cue,2,DMCC8760894,bas_cue_run2_DMCC8760894,I6,e,v,Con,n,1,1,,switch,red,black,black,NoInc,2000,1,859,1,1,463266,467772,468631,44555,31,418.711,423.217,424.076,28.412,274.412,520.412,246.027,492.027,738.026,ConNoInc
3,bas,cue,2,DMCC8760894,bas_cue_run2_DMCC8760894,2A,e,v,Con,n,1,1,,stay,red,black,black,NoInc,4400,1,644,1,1,474065,478572,479216,44555,32,429.51,434.017,434.661,28.412,274.412,520.412,246.027,492.027,738.026,ConNoInc
3,bas,cue,2,DMCC8760894,bas_cue_run2_DMCC8760894,D4,e,c,InCon,n,1,2,,stay,red,black,green,Inc,3200,0,1172,2,1,487264,491771,492943,44555,33,442.709,447.216,448.388,28.412,274.412,520.412,246.027,492.027,738.026,InConInc
3,bas,cue,2,DMCC8760894,bas_cue_run2_DMCC8760894,1A,o,v,InCon,n,2,1,,stay,red,black,black,NoInc,4400,0,0,,2,499264,503770,0,44555,34,454.709,459.215,-44.555,28.412,274.412,520.412,246.027,492.027,738.026,InConNoInc
3,bas,cue,2,DMCC8760894,bas_cue_run2_DMCC8760894,I6,e,v,Con,l,1,1,,switch,red,black,black,NoInc,3200,0,0,,1,512463,516970,0,44555,35,467.908,472.415,-44.555,28.412,274.412,520.412,246.027,492.027,738.026,ConNoInc
3,bas,cue,2,DMCC8760894,bas_cue_run2_DMCC8760894,1B,o,c,Con,l,2,2,,stay,red,black,black,NoInc,4400,1,915,2,2,524462,528969,529884,44555,36,479.907,484.414,485.329,28.412,274.412,520.412,246.027,492.027,738.026,ConNoInc
3,bas,cue,2,DMCC8760894,bas_cue_run2_DMCC8760894,2A,e,v,Con,n,1,1,,,red,black,black,NoInc,2000,0,0,,1,567673,572166,0,44555,37,523.118,527.611,-44.555,28.412,274.412,520.412,246.027,492.027,738.026,ConNoInc
3,bas,cue,2,DMCC8760894,bas_cue_run2_DMCC8760894,5H,o,c,Con,n,2,2,,stay,red,black,black,NoInc,2000,1,811,2,2,578473,582966,583777,44555,38,533.918,538.411,539.222,28.412,274.412,520.412,246.027,492.027,738.026,ConNoInc
3,bas,cue,2,DMCC8760894,bas_cue_run2_DMCC8760894,2B,e,c,InCon,l,1,2,,switch,red,black,black,NoInc,3200,0,0,,2,589272,593765,0,44555,39,544.717,549.21,-44.555,28.412,274.412,520.412,246.027,492.027,738.026,InConNoInc
3,bas,cue,2,DMCC8760894,bas_cue_run2_DMCC8760894,D4,e,c,InCon,l,1,2,,stay,red,black,green,Inc,4400,1,985,2,2,601271,605764,606749,44555,40,556.716,561.209,562.194,28.412,274.412,520.412,246.027,492.027,738.026,InConInc
3,bas,cue,2,DMCC8760894,bas_cue_run2_DMCC8760894,B1,o,c,Con,n,2,2,,switch,red,black,black,NoInc,4400,1,1413,2,2,614471,618964,620377,44555,41,569.916,574.409,575.822,28.412,274.412,520.412,246.027,492.027,738.026,ConNoInc
3,bas,cue,2,DMCC8760894,bas_cue_run2_DMCC8760894,4D,e,c,InCon,l,1,2,,switch,red,black,green,Inc,3200,1,1670,2,2,627670,632163,633833,44555,42,583.115,587.608,589.278,28.412,274.412,520.412,246.027,492.027,738.026,InConInc
3,bas,cue,2,DMCC8760894,bas_cue_run2_DMCC8760894,3E,o,v,InCon,n,2,1,,switch,red,black,green,Inc,2000,1,862,2,2,639669,644162,645024,44555,43,595.114,599.607,600.469,28.412,274.412,520.412,246.027,492.027,738.026,InConInc
3,bas,cue,2,DMCC8760894,bas_cue_run2_DMCC8760894,4D,e,c,InCon,n,1,2,,stay,red,black,green,Inc,3200,1,1599,1,1,650469,654962,656561,44555,44,605.914,610.407,612.006,28.412,274.412,520.412,246.027,492.027,738.026,InConInc
3,bas,cue,2,DMCC8760894,bas_cue_run2_DMCC8760894,A2,e,v,Con,n,1,1,,stay,red,black,black,NoInc,4400,1,799,1,1,662468,666974,667773,44555,45,617.913,622.419,623.218,28.412,274.412,520.412,246.027,492.027,738.026,ConNoInc
3,bas,cue,2,DMCC8760894,bas_cue_run2_DMCC8760894,A2,e,v,Con,l,1,1,,switch,red,black,black,NoInc,2000,1,938,1,1,675667,680174,681112,44555,46,631.112,635.619,636.557,28.412,274.412,520.412,246.027,492.027,738.026,ConNoInc
3,bas,cue,2,DMCC8760894,bas_cue_run2_DMCC8760894,6I,e,v,Con,n,1,1,,switch,red,black,black,NoInc,3200,1,1060,1,1,686467,690973,692033,44555,47,641.912,646.418,647.478,28.412,274.412,520.412,246.027,492.027,738.026,ConNoInc
3,bas,cue,2,DMCC8760894,bas_cue_run2_DMCC8760894,1B,o,c,Con,l,2,2,,switch,red,black,black,NoInc,3200,1,1858,2,2,698466,702972,704830,44555,48,653.911,658.417,660.275,28.412,274.412,520.412,246.027,492.027,738.026,ConNoInc
3,bas,cue,2,DMCC8760894,bas_cue_run2_DMCC8760894,H5,o,c,Con,l,2,2,,stay,red,black,black,NoInc,4400,1,1428,2,2,710465,714972,716400,44555,49,665.91,670.417,671.845,28.412,274.412,520.412,246.027,492.027,738.026,ConNoInc
3,bas,cue,2,DMCC8760894,bas_cue_run2_DMCC8760894,B1,o,c,Con,l,2,2,,stay,red,black,black,NoInc,2000,1,2484,2,2,723665,728171,730655,44555,50,679.11,683.616,686.1,28.412,274.412,520.412,246.027,492.027,738.026,ConNoInc
3,bas,cue,2,DMCC8760894,bas_cue_run2_DMCC8760894,H5,o,c,Con,n,2,2,,switch,red,black,green,Inc,2000,1,1641,2,2,734464,738970,740611,44555,51,689.909,694.415,696.056,28.412,274.412,520.412,246.027,492.027,738.026,ConInc
3,bas,cue,2,DMCC8760894,bas_cue_run2_DMCC8760894,E3,o,v,InCon,l,2,1,,switch,red,black,green,Inc,4400,0,1710,2,1,745263,749770,751480,44555,52,700.708,705.215,706.925,28.412,274.412,520.412,246.027,492.027,738.026,InConInc
3,bas,cue,2,DMCC8760894,bas_cue_run2_DMCC8760894,A1,o,v,InCon,l,2,1,,stay,red,black,black,NoInc,3200,1,1135,1,1,758463,762969,764104,44555,53,713.908,718.414,719.549,28.412,274.412,520.412,246.027,492.027,738.026,InConNoInc
3,bas,cue,2,DMCC8760894,bas_cue_run2_DMCC8760894,1B,o,c,Con,n,2,2,,switch,red,black,black,NoInc,4400,0,0,,2,770462,774968,0,44555,54,725.907,730.413,-44.555,28.412,274.412,520.412,246.027,492.027,738.026,ConNoInc
3,pro,cue,1,DMCC8760894,pro_cue_run1_DMCC8760894,B1,o,c,Con,l,2,2,,,red,black,black,NoInc,4400,1,1171,2,2,149528,154021,155192,118420,1,31.108,35.601,36.772,28.402,274.407,520.413,246.01,492.015,738.021,ConNoInc
3,pro,cue,1,DMCC8760894,pro_cue_run1_DMCC8760894,2A,e,v,Con,n,1,1,,switch,red,black,black,NoInc,2000,1,597,1,1,162727,167220,167817,118420,2,44.307,48.8,49.397,28.402,274.407,520.413,246.01,492.015,738.021,ConNoInc
3,pro,cue,1,DMCC8760894,pro_cue_run1_DMCC8760894,I6,e,v,Con,l,1,1,yes,switch,green,black,green,Inc,4400,1,733,1,1,173526,178032,178765,118420,3,55.106,59.612,60.345,28.402,274.407,520.413,246.01,492.015,738.021,ConInc
3,pro,cue,1,DMCC8760894,pro_cue_run1_DMCC8760894,I6,e,v,Con,n,1,1,,switch,red,black,black,NoInc,4400,1,893,1,1,186725,191231,192124,118420,4,68.305,72.811,73.704,28.402,274.407,520.413,246.01,492.015,738.021,ConNoInc
3,pro,cue,1,DMCC8760894,pro_cue_run1_DMCC8760894,5H,o,c,Con,l,2,2,,switch,red,black,black,NoInc,3200,1,780,2,2,199924,204430,205210,118420,5,81.504,86.01,86.79,28.402,274.407,520.413,246.01,492.015,738.021,ConNoInc
3,pro,cue,1,DMCC8760894,pro_cue_run1_DMCC8760894,H5,o,c,Con,l,2,2,,stay,red,black,black,NoInc,2000,1,1012,2,2,211923,216429,217441,118420,6,93.503,98.009,99.021,28.402,274.407,520.413,246.01,492.015,738.021,ConNoInc
3,pro,cue,1,DMCC8760894,pro_cue_run1_DMCC8760894,B2,e,c,InCon,n,1,2,,switch,red,black,black,NoInc,3200,1,728,1,1,222722,227228,227956,118420,7,104.302,108.808,109.536,28.402,274.407,520.413,246.01,492.015,738.021,InConNoInc
3,pro,cue,1,DMCC8760894,pro_cue_run1_DMCC8760894,1B,o,c,Con,n,2,2,,stay,red,black,black,NoInc,3200,1,987,2,2,234721,239227,240214,118420,8,116.301,120.807,121.794,28.402,274.407,520.413,246.01,492.015,738.021,ConNoInc
3,pro,cue,1,DMCC8760894,pro_cue_run1_DMCC8760894,E3,o,v,InCon,l,2,1,yes,switch,green,black,green,Inc,2000,1,684,1,1,246720,251226,251910,118420,9,128.3,132.806,133.49,28.402,274.407,520.413,246.01,492.015,738.021,InConInc
3,pro,cue,1,DMCC8760894,pro_cue_run1_DMCC8760894,6I,e,v,Con,n,1,1,yes,switch,green,black,green,Inc,2000,1,770,1,1,257532,262025,262795,118420,10,139.112,143.605,144.375,28.402,274.407,520.413,246.01,492.015,738.021,ConInc
3,pro,cue,1,DMCC8760894,pro_cue_run1_DMCC8760894,B1,o,c,Con,n,2,2,,stay,red,black,black,NoInc,3200,1,783,2,2,268331,272824,273607,118420,11,149.911,154.404,155.187,28.402,274.407,520.413,246.01,492.015,738.021,ConNoInc
3,pro,cue,1,DMCC8760894,pro_cue_run1_DMCC8760894,D4,e,c,InCon,n,1,2,yes,stay,green,black,green,Inc,2000,1,716,1,1,280330,284823,285539,118420,12,161.91,166.403,167.119,28.402,274.407,520.413,246.01,492.015,738.021,InConInc
3,pro,cue,1,DMCC8760894,pro_cue_run1_DMCC8760894,A2,e,v,Con,l,1,1,,switch,red,black,black,NoInc,4400,1,1122,1,1,291129,295622,296744,118420,13,172.709,177.202,178.324,28.402,274.407,520.413,246.01,492.015,738.021,ConNoInc
3,pro,cue,1,DMCC8760894,pro_cue_run1_DMCC8760894,4D,e,c,InCon,n,1,2,yes,switch,green,black,green,Inc,3200,1,651,1,1,304328,308821,309472,118420,14,185.908,190.401,191.052,28.402,274.407,520.413,246.01,492.015,738.021,InConInc
3,pro,cue,1,DMCC8760894,pro_cue_run1_DMCC8760894,1A,o,v,InCon,l,2,1,,switch,red,black,black,NoInc,4400,0,738,2,1,316327,320820,321558,118420,15,197.907,202.4,203.138,28.402,274.407,520.413,246.01,492.015,738.021,InConNoInc
3,pro,cue,1,DMCC8760894,pro_cue_run1_DMCC8760894,D4,e,c,InCon,l,1,2,yes,stay,green,black,green,Inc,2000,1,844,2,2,329526,334032,334876,118420,16,211.106,215.612,216.456,28.402,274.407,520.413,246.01,492.015,738.021,InConInc
3,pro,cue,1,DMCC8760894,pro_cue_run1_DMCC8760894,A2,e,v,Con,n,1,1,,switch,red,black,black,NoInc,4400,1,981,1,1,340325,344831,345812,118420,17,221.905,226.411,227.392,28.402,274.407,520.413,246.01,492.015,738.021,ConNoInc
3,pro,cue,1,DMCC8760894,pro_cue_run1_DMCC8760894,1B,o,c,Con,l,2,2,,switch,red,black,black,NoInc,3200,1,1035,2,2,353524,358030,359065,118420,18,235.104,239.61,240.645,28.402,274.407,520.413,246.01,492.015,738.021,ConNoInc
3,pro,cue,1,DMCC8760894,pro_cue_run1_DMCC8760894,6I,e,v,Con,n,1,1,,,red,black,black,NoInc,2000,1,729,1,1,395520,400027,400756,118420,19,277.1,281.607,282.336,28.402,274.407,520.413,246.01,492.015,738.021,ConNoInc
3,pro,cue,1,DMCC8760894,pro_cue_run1_DMCC8760894,I6,e,v,Con,l,1,1,,switch,red,black,black,NoInc,2000,1,913,1,1,406333,410826,411739,118420,20,287.913,292.406,293.319,28.402,274.407,520.413,246.01,492.015,738.021,ConNoInc
