wave,session,task,run,subj,name,stimuli,number,letter,trial.type,cue,number.resp,letter.resp,award,switch,cue.color,target.color,target.color.orig,incentive,iti,acc,rt,resp,cresp,time.cue.onset.abs,time.target.onset.abs,time.rt.abs,time.scan.start,trial.num,time.cue.onset,time.target.onset,time.rt,time.block1.on,time.block2.on,time.block3.on,time.block1.off,time.block2.off,time.block3.off,trialtype
2,bas,cue,1,DMCC8033964,bas_cue_run1_DMCC8033964,B2,e,c,InCon,n,1,2,,,red,black,black,NoInc,2000,1,635,1,1,142516,147022,147657,111413,1,31.103,35.609,36.244,28.41,274.405,520.414,246.02,492.016,738.011,InConNoInc
2,bas,cue,1,DMCC8033964,bas_cue_run1_DMCC8033964,4D,e,c,InCon,n,1,2,,stay,red,black,green,Inc,2000,1,656,1,1,153315,157821,158477,111413,2,41.902,46.408,47.064,28.41,274.405,520.414,246.02,492.016,738.011,InConInc
2,bas,cue,1,DMCC8033964,bas_cue_run1_DMCC8033964,A2,e,v,Con,n,1,1,,stay,red,black,black,NoInc,3200,1,691,1,1,164128,168621,169312,111413,3,52.715,57.208,57.899,28.41,274.405,520.414,246.02,492.016,738.011,ConNoInc
2,bas,cue,1,DMCC8033964,bas_cue_run1_DMCC8033964,H5,o,c,Con,l,2,2,,switch,red,black,black,NoInc,4400,1,803,2,2,176127,180620,181423,111413,4,64.714,69.207,70.01,28.41,274.405,520.414,246.02,492.016,738.011,ConNoInc
2,bas,cue,1,DMCC8033964,bas_cue_run1_DMCC8033964,I6,e,v,Con,n,1,1,,switch,red,black,black,NoInc,4400,1,786,1,1,189326,193819,194605,111413,5,77.913,82.406,83.192,28.41,274.405,520.414,246.02,492.016,738.011,ConNoInc
2,bas,cue,1,DMCC8033964,bas_cue_run1_DMCC8033964,1B,o,c,Con,l,2,2,,switch,red,black,black,NoInc,3200,1,659,2,2,202525,207018,207677,111413,6,91.112,95.605,96.264,28.41,274.405,520.414,246.02,492.016,738.011,ConNoInc
2,bas,cue,1,DMCC8033964,bas_cue_run1_DMCC8033964,B1,o,c,Con,n,2,2,,switch,red,black,black,NoInc,3200,1,681,2,2,214524,219017,219698,111413,7,103.111,107.604,108.285,28.41,274.405,520.414,246.02,492.016,738.011,ConNoInc
2,bas,cue,1,DMCC8033964,bas_cue_run1_DMCC8033964,1A,o,v,InCon,l,2,1,,switch,red,black,black,NoInc,4400,1,733,1,1,226523,231016,231749,111413,8,115.11,119.603,120.336,28.41,274.405,520.414,246.02,492.016,738.011,InConNoInc
2,bas,cue,1,DMCC8033964,bas_cue_run1_DMCC8033964,2A,e,v,Con,n,1,1,,switch,red,black,black,NoInc,2000,1,830,1,1,239722,244215,245045,111413,9,128.309,132.802,133.632,28.41,274.405,520.414,246.02,492.016,738.011,ConNoInc
2,bas,cue,1,DMCC8033964,bas_cue_run1_DMCC8033964,1B,o,c,Con,n,2,2,,stay,red,black,black,NoInc,2000,1,673,2,2,250521,255028,255701,111413,10,139.108,143.615,144.288,28.41,274.405,520.414,246.02,492.016,738.011,ConNoInc
2,bas,cue,1,DMCC8033964,bas_cue_run1_DMCC8033964,6I,e,v,Con,n,1,1,,stay,red,black,green,Inc,4400,1,951,1,1,261320,265827,266778,111413,11,149.907,154.414,155.365,28.41,274.405,520.414,246.02,492.016,738.011,ConInc
2,bas,cue,1,DMCC8033964,bas_cue_run1_DMCC8033964,5H,o,c,Con,l,2,2,,switch,red,black,black,NoInc,3200,1,789,2,2,274519,279026,279815,111413,12,163.106,167.613,168.402,28.41,274.405,520.414,246.02,492.016,738.011,ConNoInc
2,bas,cue,1,DMCC8033964,bas_cue_run1_DMCC8033964,E3,o,v,InCon,l,2,1,,stay,red,black,green,Inc,2000,1,945,1,1,286519,291025,291970,111413,13,175.106,179.612,180.557,28.41,274.405,520.414,246.02,492.016,738.011,InConInc
2,bas,cue,1,DMCC8033964,bas_cue_run1_DMCC8033964,D4,e,c,InCon,n,1,2,,switch,red,black,green,Inc,4400,1,761,1,1,297318,301824,302585,111413,14,185.905,190.411,191.172,28.41,274.405,520.414,246.02,492.016,738.011,InConInc
2,bas,cue,1,DMCC8033964,bas_cue_run1_DMCC8033964,A2,e,v,Con,l,1,1,,switch,red,black,black,NoInc,2000,1,878,1,1,310517,315023,315901,111413,15,199.104,203.61,204.488,28.41,274.405,520.414,246.02,492.016,738.011,ConNoInc
2,bas,cue,1,DMCC8033964,bas_cue_run1_DMCC8033964,I6,e,v,Con,l,1,1,,stay,red,black,green,Inc,3200,1,929,1,1,321316,325822,326751,111413,16,209.903,214.409,215.338,28.41,274.405,520.414,246.02,492.016,738.011,ConInc
2,bas,cue,1,DMCC8033964,bas_cue_run1_DMCC8033964,B1,o,c,Con,l,2,2,,stay,red,black,black,NoInc,4400,1,857,2,2,333315,337821,338678,111413,17,221.902,226.408,227.265,28.41,274.405,520.414,246.02,492.016,738.011,ConNoInc
2,bas,cue,1,DMCC8033964,bas_cue_run1_DMCC8033964,D4,e,c,InCon,l,1,2,,stay,red,black,green,Inc,3200,1,1033,2,2,346527,351020,352053,111413,18,235.114,239.607,240.64,28.41,274.405,520.414,246.02,492.016,738.011,InConInc
2,bas,cue,1,DMCC8033964,bas_cue_run1_DMCC8033964,1B,o,c,Con,l,2,2,,,red,black,black,NoInc,4400,1,749,2,2,388524,393017,393766,111413,19,277.111,281.604,282.353,28.41,274.405,520.414,246.02,492.016,738.011,ConNoInc
2,bas,cue,1,DMCC8033964,bas_cue_run1_DMCC8033964,1B,o,c,Con,n,2,2,,switch,red,black,black,NoInc,4400,1,951,2,2,401723,406216,407167,111413,20,290.31,294.803,295.754,28.41,274.405,520.414,246.02,492.016,738.011,ConNoInc
2,bas,cue,1,DMCC8033964,bas_cue_run1_DMCC8033964,5H,o,c,Con,n,2,2,,stay,red,black,green,Inc,4400,1,728,2,2,414922,419415,420143,111413,21,303.509,308.002,308.73,28.41,274.405,520.414,246.02,492.016,738.011,ConInc
2,bas,cue,1,DMCC8033964,bas_cue_run1_DMCC8033964,I6,e,v,Con,l,1,1,,switch,red,black,black,NoInc,2000,1,1012,1,1,428121,432628,433640,111413,22,316.708,321.215,322.227,28.41,274.405,520.414,246.02,492.016,738.011,ConNoInc
2,bas,cue,1,DMCC8033964,bas_cue_run1_DMCC8033964,3E,o,v,InCon,n,2,1,,switch,red,black,green,Inc,2000,1,703,2,2,438921,443427,444130,111413,23,327.508,332.014,332.717,28.41,274.405,520.414,246.02,492.016,738.011,InConInc
2,bas,cue,1,DMCC8033964,bas_cue_run1_DMCC8033964,3E,o,v,InCon,l,2,1,,switch,red,black,green,Inc,3200,1,732,1,1,449720,454226,454958,111413,24,338.307,342.813,343.545,28.41,274.405,520.414,246.02,492.016,738.011,InConInc
2,bas,cue,1,DMCC8033964,bas_cue_run1_DMCC8033964,2A,e,v,Con,n,1,1,,switch,red,black,black,NoInc,3200,1,840,1,1,461719,466225,467065,111413,25,350.306,354.812,355.652,28.41,274.405,520.414,246.02,492.016,738.011,ConNoInc
2,bas,cue,1,DMCC8033964,bas_cue_run1_DMCC8033964,E3,o,v,InCon,n,2,1,,stay,red,black,green,Inc,2000,1,1029,2,2,473718,478224,479253,111413,26,362.305,366.811,367.84,28.41,274.405,520.414,246.02,492.016,738.011,InConInc
2,bas,cue,1,DMCC8033964,bas_cue_run1_DMCC8033964,A1,o,v,InCon,n,2,1,,stay,red,black,black,NoInc,3200,1,726,2,2,484517,489024,489750,111413,27,373.104,377.611,378.337,28.41,274.405,520.414,246.02,492.016,738.011,InConNoInc
2,bas,cue,1,DMCC8033964,bas_cue_run1_DMCC8033964,B1,o,c,Con,l,2,2,,switch,red,black,black,NoInc,4400,1,649,2,2,496516,501023,501672,111413,28,385.103,389.61,390.259,28.41,274.405,520.414,246.02,492.016,738.011,ConNoInc
2,bas,cue,1,DMCC8033964,bas_cue_run1_DMCC8033964,D4,e,c,InCon,l,1,2,,stay,red,black,green,Inc,4400,1,893,2,2,509716,514222,515115,111413,29,398.303,402.809,403.702,28.41,274.405,520.414,246.02,492.016,738.011,InConInc
2,bas,cue,1,DMCC8033964,bas_cue_run1_DMCC8033964,2B,e,c,InCon,l,1,2,,stay,red,black,black,NoInc,3200,1,924,2,2,522915,527421,528345,111413,30,411.502,416.008,416.932,28.41,274.405,520.414,246.02,492.016,738.011,InConNoInc
2,bas,cue,1,DMCC8033964,bas_cue_run1_DMCC8033964,2A,e,v,Con,l,1,1,,stay,red,black,black,NoInc,4400,1,679,1,1,534927,539420,540099,111413,31,423.514,428.007,428.686,28.41,274.405,520.414,246.02,492.016,738.011,ConNoInc
2,bas,cue,1,DMCC8033964,bas_cue_run1_DMCC8033964,A2,e,v,Con,n,1,1,,switch,red,black,black,NoInc,2000,1,660,1,1,548126,552619,553279,111413,32,436.713,441.206,441.866,28.41,274.405,520.414,246.02,492.016,738.011,ConNoInc
2,bas,cue,1,DMCC8033964,bas_cue_run1_DMCC8033964,2A,e,v,Con,l,1,1,,switch,red,black,black,NoInc,2000,1,832,1,1,558925,563418,564250,111413,33,447.512,452.005,452.837,28.41,274.405,520.414,246.02,492.016,738.011,ConNoInc
2,bas,cue,1,DMCC8033964,bas_cue_run1_DMCC8033964,E3,o,v,InCon,n,2,1,,switch,red,black,green,Inc,3200,1,1036,2,2,569724,574217,575253,111413,34,458.311,462.804,463.84,28.41,274.405,520.414,246.02,492.016,738.011,InConInc
2,bas,cue,1,DMCC8033964,bas_cue_run1_DMCC8033964,5H,o,c,Con,l,2,2,,switch,red,black,black,NoInc,2000,1,715,2,2,581724,586217,586932,111413,35,470.311,474.804,475.519,28.41,274.405,520.414,246.02,492.016,738.011,ConNoInc
2,bas,cue,1,DMCC8033964,bas_cue_run1_DMCC8033964,6I,e,v,Con,n,1,1,,switch,red,black,black,NoInc,3200,1,765,1,1,592523,597016,597781,111413,36,481.11,485.603,486.368,28.41,274.405,520.414,246.02,492.016,738.011,ConNoInc
2,bas,cue,1,DMCC8033964,bas_cue_run1_DMCC8033964,6I,e,v,Con,l,1,1,,,red,black,black,NoInc,3200,1,968,1,1,634520,639026,639994,111413,37,523.107,527.613,528.581,28.41,274.405,520.414,246.02,492.016,738.011,ConNoInc
2,bas,cue,1,DMCC8033964,bas_cue_run1_DMCC8033964,E3,o,v,InCon,l,2,1,,stay,red,black,green,Inc,2000,1,875,1,1,646519,651025,651900,111413,38,535.106,539.612,540.487,28.41,274.405,520.414,246.02,492.016,738.011,InConInc
2,bas,cue,1,DMCC8033964,bas_cue_run1_DMCC8033964,1B,o,c,Con,n,2,2,,switch,red,black,black,NoInc,4400,1,882,2,2,657318,661824,662706,111413,39,545.905,550.411,551.293,28.41,274.405,520.414,246.02,492.016,738.011,ConNoInc
2,bas,cue,1,DMCC8033964,bas_cue_run1_DMCC8033964,4D,e,c,InCon,n,1,2,,stay,red,black,green,Inc,3200,1,641,1,1,670517,675023,675664,111413,40,559.104,563.61,564.251,28.41,274.405,520.414,246.02,492.016,738.011,InConInc
2,bas,cue,1,DMCC8033964,bas_cue_run1_DMCC8033964,3E,o,v,InCon,n,2,1,,stay,red,black,green,Inc,3200,1,832,2,2,682516,687023,687855,111413,41,571.103,575.61,576.442,28.41,274.405,520.414,246.02,492.016,738.011,InConInc
2,bas,cue,1,DMCC8033964,bas_cue_run1_DMCC8033964,A2,e,v,Con,l,1,1,,switch,red,black,black,NoInc,2000,1,822,1,1,694515,699022,699844,111413,42,583.102,587.609,588.431,28.41,274.405,520.414,246.02,492.016,738.011,ConNoInc
2,bas,cue,1,DMCC8033964,bas_cue_run1_DMCC8033964,H5,o,c,Con,n,2,2,,switch,red,black,black,NoInc,2000,1,903,2,2,705328,709821,710724,111413,43,593.915,598.408,599.311,28.41,274.405,520.414,246.02,492.016,738.011,ConNoInc
2,bas,cue,1,DMCC8033964,bas_cue_run1_DMCC8033964,B1,o,c,Con,l,2,2,,switch,red,black,black,NoInc,4400,1,1121,2,2,716127,720620,721741,111413,44,604.714,609.207,610.328,28.41,274.405,520.414,246.02,492.016,738.011,ConNoInc
2,bas,cue,1,DMCC8033964,bas_cue_run1_DMCC8033964,2A,e,v,Con,l,1,1,,stay,red,black,black,NoInc,4400,1,771,1,1,729326,733819,734590,111413,45,617.913,622.406,623.177,28.41,274.405,520.414,246.02,492.016,738.011,ConNoInc
2,bas,cue,1,DMCC8033964,bas_cue_run1_DMCC8033964,1A,o,v,InCon,n,2,1,,switch,red,black,black,NoInc,2000,1,866,2,2,742525,747018,747884,111413,46,631.112,635.605,636.471,28.41,274.405,520.414,246.02,492.016,738.011,InConNoInc
2,bas,cue,1,DMCC8033964,bas_cue_run1_DMCC8033964,H5,o,c,Con,l,2,2,,switch,red,black,green,Inc,4400,1,1022,2,2,753324,757817,758839,111413,47,641.911,646.404,647.426,28.41,274.405,520.414,246.02,492.016,738.011,ConInc
2,bas,cue,1,DMCC8033964,bas_cue_run1_DMCC8033964,A2,e,v,Con,n,1,1,,switch,red,black,black,NoInc,3200,1,760,1,1,766523,771016,771776,111413,48,655.11,659.603,660.363,28.41,274.405,520.414,246.02,492.016,738.011,ConNoInc
2,bas,cue,1,DMCC8033964,bas_cue_run1_DMCC8033964,B1,o,c,Con,n,2,2,,stay,red,black,black,NoInc,3200,1,712,2,2,778522,783015,783727,111413,49,667.109,671.602,672.314,28.41,274.405,520.414,246.02,492.016,738.011,ConNoInc
2,bas,cue,1,DMCC8033964,bas_cue_run1_DMCC8033964,4D,e,c,InCon,l,1,2,,switch,red,black,green,Inc,2000,1,798,2,2,790522,795028,795826,111413,50,679.109,683.615,684.413,28.41,274.405,520.414,246.02,492.016,738.011,InConInc
2,bas,cue,1,DMCC8033964,bas_cue_run1_DMCC8033964,2A,e,v,Con,n,1,1,,switch,red,black,black,NoInc,4400,1,871,1,1,801321,805827,806698,111413,51,689.908,694.414,695.285,28.41,274.405,520.414,246.02,492.016,738.011,ConNoInc
2,bas,cue,1,DMCC8033964,bas_cue_run1_DMCC8033964,6I,e,v,Con,n,1,1,,stay,red,black,black,NoInc,4400,1,732,1,1,814520,819026,819758,111413,52,703.107,707.613,708.345,28.41,274.405,520.414,246.02,492.016,738.011,ConNoInc
2,bas,cue,1,DMCC8033964,bas_cue_run1_DMCC8033964,1B,o,c,Con,l,2,2,,switch,red,black,black,NoInc,3200,1,757,2,2,827719,832225,832982,111413,53,716.306,720.812,721.569,28.41,274.405,520.414,246.02,492.016,738.011,ConNoInc
2,bas,cue,1,DMCC8033964,bas_cue_run1_DMCC8033964,3E,o,v,InCon,l,2,1,,stay,red,black,green,Inc,2000,1,812,1,1,839718,844224,845036,111413,54,728.305,732.811,733.623,28.41,274.405,520.414,246.02,492.016,738.011,InConInc
2,bas,cue,2,DMCC8033964,bas_cue_run2_DMCC8033964,B1,o,c,Con,n,2,2,,,red,black,black,NoInc,3200,1,768,2,2,71492,75998,76766,40390,1,31.102,35.608,36.376,28.408,274.404,520.412,246.019,492.014,738.023,ConNoInc
2,bas,cue,2,DMCC8033964,bas_cue_run2_DMCC8033964,2A,e,v,Con,n,1,1,,stay,red,black,black,NoInc,3200,1,667,1,1,83504,87997,88664,40390,2,43.114,47.607,48.274,28.408,274.404,520.412,246.019,492.014,738.023,ConNoInc
2,bas,cue,2,DMCC8033964,bas_cue_run2_DMCC8033964,D4,e,c,InCon,n,1,2,,stay,red,black,green,Inc,3200,1,747,1,1,95503,99996,100743,40390,3,55.113,59.606,60.353,28.408,274.404,520.412,246.019,492.014,738.023,InConInc
2,bas,cue,2,DMCC8033964,bas_cue_run2_DMCC8033964,5H,o,c,Con,n,2,2,,stay,red,black,black,NoInc,2000,1,810,2,2,107502,111995,112805,40390,4,67.112,71.605,72.415,28.408,274.404,520.412,246.019,492.014,738.023,ConNoInc
2,bas,cue,2,DMCC8033964,bas_cue_run2_DMCC8033964,4D,e,c,InCon,l,1,2,,switch,red,black,green,Inc,4400,1,949,2,2,118301,122794,123743,40390,5,77.911,82.404,83.353,28.408,274.404,520.412,246.019,492.014,738.023,InConInc
2,bas,cue,2,DMCC8033964,bas_cue_run2_DMCC8033964,2A,e,v,Con,l,1,1,,stay,red,black,black,NoInc,2000,1,701,1,1,131501,135994,136695,40390,6,91.111,95.604,96.305,28.408,274.404,520.412,246.019,492.014,738.023,ConNoInc
2,bas,cue,2,DMCC8033964,bas_cue_run2_DMCC8033964,B1,o,c,Con,l,2,2,,stay,red,black,black,NoInc,2000,1,815,2,2,142300,146793,147608,40390,7,101.91,106.403,107.218,28.408,274.404,520.412,246.019,492.014,738.023,ConNoInc
2,bas,cue,2,DMCC8033964,bas_cue_run2_DMCC8033964,1B,o,c,Con,n,2,2,,switch,red,black,black,NoInc,4400,1,648,2,2,153099,157592,158240,40390,8,112.709,117.202,117.85,28.408,274.404,520.412,246.019,492.014,738.023,ConNoInc
2,bas,cue,2,DMCC8033964,bas_cue_run2_DMCC8033964,6I,e,v,Con,l,1,1,,switch,red,black,green,Inc,4400,1,1480,1,1,166298,170804,172284,40390,9,125.908,130.414,131.894,28.408,274.404,520.412,246.019,492.014,738.023,ConInc
2,bas,cue,2,DMCC8033964,bas_cue_run2_DMCC8033964,3E,o,v,InCon,n,2,1,,switch,red,black,green,Inc,2000,1,761,2,2,179497,184003,184764,40390,10,139.107,143.613,144.374,28.408,274.404,520.412,246.019,492.014,738.023,InConInc
2,bas,cue,2,DMCC8033964,bas_cue_run2_DMCC8033964,E3,o,v,InCon,n,2,1,,stay,red,black,green,Inc,4400,1,747,2,2,190296,194803,195550,40390,11,149.906,154.413,155.16,28.408,274.404,520.412,246.019,492.014,738.023,InConInc
2,bas,cue,2,DMCC8033964,bas_cue_run2_DMCC8033964,A2,e,v,Con,n,1,1,,stay,red,black,black,NoInc,4400,1,666,1,1,203495,208002,208668,40390,12,163.105,167.612,168.278,28.408,274.404,520.412,246.019,492.014,738.023,ConNoInc
2,bas,cue,2,DMCC8033964,bas_cue_run2_DMCC8033964,1B,o,c,Con,l,2,2,,switch,red,black,black,NoInc,3200,1,988,2,2,216694,221201,222189,40390,13,176.304,180.811,181.799,28.408,274.404,520.412,246.019,492.014,738.023,ConNoInc
2,bas,cue,2,DMCC8033964,bas_cue_run2_DMCC8033964,A2,e,v,Con,l,1,1,,stay,red,black,black,NoInc,2000,1,681,1,1,228693,233200,233881,40390,14,188.303,192.81,193.491,28.408,274.404,520.412,246.019,492.014,738.023,ConNoInc
2,bas,cue,2,DMCC8033964,bas_cue_run2_DMCC8033964,H5,o,c,Con,l,2,2,,stay,red,black,black,NoInc,3200,1,747,2,2,239493,243999,244746,40390,15,199.103,203.609,204.356,28.408,274.404,520.412,246.019,492.014,738.023,ConNoInc
2,bas,cue,2,DMCC8033964,bas_cue_run2_DMCC8033964,E3,o,v,InCon,l,2,1,,stay,red,black,green,Inc,2000,1,665,1,1,251492,255998,256663,40390,16,211.102,215.608,216.273,28.408,274.404,520.412,246.019,492.014,738.023,InConInc
2,bas,cue,2,DMCC8033964,bas_cue_run2_DMCC8033964,6I,e,v,Con,n,1,1,,switch,red,black,black,NoInc,4400,1,719,1,1,262304,266797,267516,40390,17,221.914,226.407,227.126,28.408,274.404,520.412,246.019,492.014,738.023,ConNoInc
2,bas,cue,2,DMCC8033964,bas_cue_run2_DMCC8033964,B2,e,c,InCon,l,1,2,,switch,red,black,black,NoInc,3200,1,861,2,2,275503,279996,280857,40390,18,235.113,239.606,240.467,28.408,274.404,520.412,246.019,492.014,738.023,InConNoInc
2,bas,cue,2,DMCC8033964,bas_cue_run2_DMCC8033964,A2,e,v,Con,l,1,1,,,red,black,black,NoInc,3200,1,702,1,1,317500,321993,322695,40390,19,277.11,281.603,282.305,28.408,274.404,520.412,246.019,492.014,738.023,ConNoInc
2,bas,cue,2,DMCC8033964,bas_cue_run2_DMCC8033964,1B,o,c,Con,l,2,2,,stay,red,black,black,NoInc,4400,1,743,2,2,329499,333992,334735,40390,20,289.109,293.602,294.345,28.408,274.404,520.412,246.019,492.014,738.023,ConNoInc
2,bas,cue,2,DMCC8033964,bas_cue_run2_DMCC8033964,I6,e,v,Con,l,1,1,,stay,red,black,black,NoInc,4400,1,948,1,1,342698,347205,348153,40390,21,302.308,306.815,307.763,28.408,274.404,520.412,246.019,492.014,738.023,ConNoInc
2,bas,cue,2,DMCC8033964,bas_cue_run2_DMCC8033964,D4,e,c,InCon,l,1,2,,stay,red,black,green,Inc,4400,1,1017,2,2,355897,360404,361421,40390,22,315.507,320.014,321.031,28.408,274.404,520.412,246.019,492.014,738.023,InConInc
2,bas,cue,2,DMCC8033964,bas_cue_run2_DMCC8033964,2A,e,v,Con,l,1,1,,stay,red,black,black,NoInc,2000,1,701,1,1,369096,373603,374304,40390,23,328.706,333.213,333.914,28.408,274.404,520.412,246.019,492.014,738.023,ConNoInc
2,bas,cue,2,DMCC8033964,bas_cue_run2_DMCC8033964,B1,o,c,Con,l,2,2,,stay,red,black,black,NoInc,2000,1,698,2,2,379896,384402,385100,40390,24,339.506,344.012,344.71,28.408,274.404,520.412,246.019,492.014,738.023,ConNoInc
2,bas,cue,2,DMCC8033964,bas_cue_run2_DMCC8033964,I6,e,v,Con,n,1,1,,switch,red,black,green,Inc,3200,1,699,1,1,390695,395201,395900,40390,25,350.305,354.811,355.51,28.408,274.404,520.412,246.019,492.014,738.023,ConInc
2,bas,cue,2,DMCC8033964,bas_cue_run2_DMCC8033964,H5,o,c,Con,l,2,2,,switch,red,black,black,NoInc,3200,1,671,2,2,402694,407200,407871,40390,26,362.304,366.81,367.481,28.408,274.404,520.412,246.019,492.014,738.023,ConNoInc
2,bas,cue,2,DMCC8033964,bas_cue_run2_DMCC8033964,B1,o,c,Con,n,2,2,,switch,red,black,black,NoInc,2000,1,734,2,2,414693,419199,419933,40390,27,374.303,378.809,379.543,28.408,274.404,520.412,246.019,492.014,738.023,ConNoInc
2,bas,cue,2,DMCC8033964,bas_cue_run2_DMCC8033964,2B,e,c,InCon,n,1,2,,stay,red,black,black,NoInc,4400,1,633,1,1,425492,429999,430632,40390,28,385.102,389.609,390.242,28.408,274.404,520.412,246.019,492.014,738.023,InConNoInc
2,bas,cue,2,DMCC8033964,bas_cue_run2_DMCC8033964,4D,e,c,InCon,n,1,2,,stay,red,black,green,Inc,3200,1,653,1,1,438705,443198,443851,40390,29,398.315,402.808,403.461,28.408,274.404,520.412,246.019,492.014,738.023,InConInc
2,bas,cue,2,DMCC8033964,bas_cue_run2_DMCC8033964,5H,o,c,Con,l,2,2,,switch,red,black,green,Inc,3200,1,777,2,2,450704,455197,455974,40390,30,410.314,414.807,415.584,28.408,274.404,520.412,246.019,492.014,738.023,ConInc
2,bas,cue,2,DMCC8033964,bas_cue_run2_DMCC8033964,D4,e,c,InCon,n,1,2,,switch,red,black,green,Inc,4400,1,714,1,1,462703,467196,467910,40390,31,422.313,426.806,427.52,28.408,274.404,520.412,246.019,492.014,738.023,InConInc
2,bas,cue,2,DMCC8033964,bas_cue_run2_DMCC8033964,A2,e,v,Con,n,1,1,,stay,red,black,black,NoInc,2000,1,617,1,1,475902,480395,481012,40390,32,435.512,440.005,440.622,28.408,274.404,520.412,246.019,492.014,738.023,ConNoInc
2,bas,cue,2,DMCC8033964,bas_cue_run2_DMCC8033964,2A,e,v,Con,n,1,1,,stay,red,black,black,NoInc,2000,1,689,1,1,486701,491194,491883,40390,33,446.311,450.804,451.493,28.408,274.404,520.412,246.019,492.014,738.023,ConNoInc
2,bas,cue,2,DMCC8033964,bas_cue_run2_DMCC8033964,1A,o,v,InCon,n,2,1,,stay,red,black,black,NoInc,4400,1,737,2,2,497500,501993,502730,40390,34,457.11,461.603,462.34,28.408,274.404,520.412,246.019,492.014,738.023,InConNoInc
2,bas,cue,2,DMCC8033964,bas_cue_run2_DMCC8033964,I6,e,v,Con,n,1,1,,stay,red,black,black,NoInc,2000,1,721,1,1,510699,515192,515913,40390,35,470.309,474.802,475.523,28.408,274.404,520.412,246.019,492.014,738.023,ConNoInc
2,bas,cue,2,DMCC8033964,bas_cue_run2_DMCC8033964,3E,o,v,InCon,l,2,1,,switch,red,black,green,Inc,3200,1,663,1,1,521499,525992,526655,40390,36,481.109,485.602,486.265,28.408,274.404,520.412,246.019,492.014,738.023,InConInc
2,bas,cue,2,DMCC8033964,bas_cue_run2_DMCC8033964,E3,o,v,InCon,l,2,1,,,red,black,green,Inc,4400,1,669,1,1,563495,568002,568671,40390,37,523.105,527.612,528.281,28.408,274.404,520.412,246.019,492.014,738.023,InConInc
2,bas,cue,2,DMCC8033964,bas_cue_run2_DMCC8033964,2A,e,v,Con,n,1,1,,switch,red,black,black,NoInc,3200,1,540,1,1,576695,581201,581741,40390,38,536.305,540.811,541.351,28.408,274.404,520.412,246.019,492.014,738.023,ConNoInc
2,bas,cue,2,DMCC8033964,bas_cue_run2_DMCC8033964,A1,o,v,InCon,l,2,1,,switch,red,black,black,NoInc,3200,1,618,1,1,588694,593200,593818,40390,39,548.304,552.81,553.428,28.408,274.404,520.412,246.019,492.014,738.023,InConNoInc
2,bas,cue,2,DMCC8033964,bas_cue_run2_DMCC8033964,5H,o,c,Con,n,2,2,,switch,red,black,black,NoInc,4400,1,702,2,2,600693,605199,605901,40390,40,560.303,564.809,565.511,28.408,274.404,520.412,246.019,492.014,738.023,ConNoInc
2,bas,cue,2,DMCC8033964,bas_cue_run2_DMCC8033964,1B,o,c,Con,n,2,2,,stay,red,black,black,NoInc,2000,1,622,2,2,613892,618398,619020,40390,41,573.502,578.008,578.63,28.408,274.404,520.412,246.019,492.014,738.023,ConNoInc
2,bas,cue,2,DMCC8033964,bas_cue_run2_DMCC8033964,B1,o,c,Con,l,2,2,,switch,red,black,black,NoInc,4400,1,586,2,2,624704,629197,629783,40390,42,584.314,588.807,589.393,28.408,274.404,520.412,246.019,492.014,738.023,ConNoInc
2,bas,cue,2,DMCC8033964,bas_cue_run2_DMCC8033964,D4,e,c,InCon,l,1,2,,stay,red,black,green,Inc,2000,1,726,2,2,637903,642396,643122,40390,43,597.513,602.006,602.732,28.408,274.404,520.412,246.019,492.014,738.023,InConInc
2,bas,cue,2,DMCC8033964,bas_cue_run2_DMCC8033964,2B,e,c,InCon,l,1,2,,stay,red,black,black,NoInc,3200,1,651,2,2,648703,653196,653847,40390,44,608.313,612.806,613.457,28.408,274.404,520.412,246.019,492.014,738.023,InConNoInc
2,bas,cue,2,DMCC8033964,bas_cue_run2_DMCC8033964,B1,o,c,Con,n,2,2,,switch,red,black,black,NoInc,2000,1,658,2,2,660702,665195,665853,40390,45,620.312,624.805,625.463,28.408,274.404,520.412,246.019,492.014,738.023,ConNoInc
2,bas,cue,2,DMCC8033964,bas_cue_run2_DMCC8033964,3E,o,v,InCon,n,2,1,,stay,red,black,green,Inc,4400,1,944,2,2,671501,675994,676938,40390,46,631.111,635.604,636.548,28.408,274.404,520.412,246.019,492.014,738.023,InConInc
2,bas,cue,2,DMCC8033964,bas_cue_run2_DMCC8033964,4D,e,c,InCon,l,1,2,,switch,red,black,green,Inc,3200,1,917,2,2,684700,689193,690110,40390,47,644.31,648.803,649.72,28.408,274.404,520.412,246.019,492.014,738.023,InConInc
2,bas,cue,2,DMCC8033964,bas_cue_run2_DMCC8033964,1B,o,c,Con,l,2,2,,stay,red,black,black,NoInc,2000,1,720,2,2,696699,701192,701912,40390,48,656.309,660.802,661.522,28.408,274.404,520.412,246.019,492.014,738.023,ConNoInc
2,bas,cue,2,DMCC8033964,bas_cue_run2_DMCC8033964,6I,e,v,Con,n,1,1,,switch,red,black,black,NoInc,2000,1,855,1,1,707498,712005,712860,40390,49,667.108,671.615,672.47,28.408,274.404,520.412,246.019,492.014,738.023,ConNoInc
2,bas,cue,2,DMCC8033964,bas_cue_run2_DMCC8033964,H5,o,c,Con,n,2,2,,stay,red,black,green,Inc,3200,1,693,2,2,718297,722804,723497,40390,50,677.907,682.414,683.107,28.408,274.404,520.412,246.019,492.014,738.023,ConInc
2,bas,cue,2,DMCC8033964,bas_cue_run2_DMCC8033964,H5,o,c,Con,l,2,2,,switch,red,black,black,NoInc,4400,1,918,2,2,730297,734803,735721,40390,51,689.907,694.413,695.331,28.408,274.404,520.412,246.019,492.014,738.023,ConNoInc
2,bas,cue,2,DMCC8033964,bas_cue_run2_DMCC8033964,A2,e,v,Con,l,1,1,,stay,red,black,black,NoInc,4400,1,876,1,1,743496,748002,748878,40390,52,703.106,707.612,708.488,28.408,274.404,520.412,246.019,492.014,738.023,ConNoInc
2,bas,cue,2,DMCC8033964,bas_cue_run2_DMCC8033964,A2,e,v,Con,n,1,1,,switch,red,black,black,NoInc,2000,1,784,1,1,756695,761201,761985,40390,53,716.305,720.811,721.595,28.408,274.404,520.412,246.019,492.014,738.023,ConNoInc
2,bas,cue,2,DMCC8033964,bas_cue_run2_DMCC8033964,4D,e,c,InCon,n,1,2,,stay,red,black,green,Inc,3200,1,856,1,1,767494,772000,772856,40390,54,727.104,731.61,732.466,28.408,274.404,520.412,246.019,492.014,738.023,InConInc
2,pro,cue,1,DMCC8033964,pro_cue_run1_DMCC8033964,5H,o,c,Con,l,2,2,,,red,black,black,NoInc,4400,1,686,2,2,149063,153569,154255,117947,1,31.116,35.622,36.308,28.422,274.421,520.419,246.036,492.034,738.032,ConNoInc
2,pro,cue,1,DMCC8033964,pro_cue_run1_DMCC8033964,1B,o,c,Con,l,2,2,,stay,red,black,black,NoInc,4400,1,455,2,2,162262,166768,167223,117947,2,44.315,48.821,49.276,28.422,274.421,520.419,246.036,492.034,738.032,ConNoInc
2,pro,cue,1,DMCC8033964,pro_cue_run1_DMCC8033964,6I,e,v,Con,n,1,1,error,switch,green,black,green,Inc,4400,0,439,2,1,175474,179967,180406,117947,3,57.527,62.02,62.459,28.422,274.421,520.419,246.036,492.034,738.032,ConInc
2,pro,cue,1,DMCC8033964,pro_cue_run1_DMCC8033964,4D,e,c,InCon,n,1,2,yes,stay,green,black,green,Inc,3200,1,477,1,1,188674,193167,193644,117947,4,70.727,75.22,75.697,28.422,274.421,520.419,246.036,492.034,738.032,InConInc
2,pro,cue,1,DMCC8033964,pro_cue_run1_DMCC8033964,E3,o,v,InCon,l,2,1,yes,switch,green,black,green,Inc,2000,1,459,1,1,200673,205166,205625,117947,5,82.726,87.219,87.678,28.422,274.421,520.419,246.036,492.034,738.032,InConInc
2,pro,cue,1,DMCC8033964,pro_cue_run1_DMCC8033964,B1,o,c,Con,l,2,2,,stay,red,black,black,NoInc,2000,1,640,2,2,211472,215965,216605,117947,6,93.525,98.018,98.658,28.422,274.421,520.419,246.036,492.034,738.032,ConNoInc
2,pro,cue,1,DMCC8033964,pro_cue_run1_DMCC8033964,D4,e,c,InCon,n,1,2,yes,switch,green,black,green,Inc,2000,1,470,1,1,222271,226764,227234,117947,7,104.324,108.817,109.287,28.422,274.421,520.419,246.036,492.034,738.032,InConInc
2,pro,cue,1,DMCC8033964,pro_cue_run1_DMCC8033964,B1,o,c,Con,n,2,2,,stay,red,black,black,NoInc,3200,1,589,2,2,233071,237564,238153,117947,8,115.124,119.617,120.206,28.422,274.421,520.419,246.036,492.034,738.032,ConNoInc
2,pro,cue,1,DMCC8033964,pro_cue_run1_DMCC8033964,H5,o,c,Con,l,2,2,,switch,red,black,black,NoInc,3200,1,519,2,2,245070,249563,250082,117947,9,127.123,131.616,132.135,28.422,274.421,520.419,246.036,492.034,738.032,ConNoInc
2,pro,cue,1,DMCC8033964,pro_cue_run1_DMCC8033964,I6,e,v,Con,l,1,1,yes,stay,green,black,green,Inc,2000,1,488,1,1,257069,261562,262050,117947,10,139.122,143.615,144.103,28.422,274.421,520.419,246.036,492.034,738.032,ConInc
2,pro,cue,1,DMCC8033964,pro_cue_run1_DMCC8033964,I6,e,v,Con,n,1,1,,switch,red,black,black,NoInc,3200,1,488,1,1,267869,272362,272850,117947,11,149.922,154.415,154.903,28.422,274.421,520.419,246.036,492.034,738.032,ConNoInc
2,pro,cue,1,DMCC8033964,pro_cue_run1_DMCC8033964,1A,o,v,InCon,l,2,1,,switch,red,black,black,NoInc,4400,1,633,1,1,279868,284374,285007,117947,12,161.921,166.427,167.06,28.422,274.421,520.419,246.036,492.034,738.032,InConNoInc
2,pro,cue,1,DMCC8033964,pro_cue_run1_DMCC8033964,A2,e,v,Con,n,1,1,,switch,red,black,black,NoInc,3200,1,409,1,1,293067,297573,297982,117947,13,175.12,179.626,180.035,28.422,274.421,520.419,246.036,492.034,738.032,ConNoInc
2,pro,cue,1,DMCC8033964,pro_cue_run1_DMCC8033964,2A,e,v,Con,n,1,1,,stay,red,black,black,NoInc,3200,1,401,1,1,305066,309573,309974,117947,14,187.119,191.626,192.027,28.422,274.421,520.419,246.036,492.034,738.032,ConNoInc
2,pro,cue,1,DMCC8033964,pro_cue_run1_DMCC8033964,A2,e,v,Con,l,1,1,,switch,red,black,black,NoInc,4400,1,462,1,1,317066,321572,322034,117947,15,199.119,203.625,204.087,28.422,274.421,520.419,246.036,492.034,738.032,ConNoInc
2,pro,cue,1,DMCC8033964,pro_cue_run1_DMCC8033964,1B,o,c,Con,n,2,2,,switch,red,black,black,NoInc,4400,1,560,2,2,330265,334771,335331,117947,16,212.318,216.824,217.384,28.422,274.421,520.419,246.036,492.034,738.032,ConNoInc
2,pro,cue,1,DMCC8033964,pro_cue_run1_DMCC8033964,B2,e,c,InCon,n,1,2,,stay,red,black,black,NoInc,2000,1,478,1,1,343464,347970,348448,117947,17,225.517,230.023,230.501,28.422,274.421,520.419,246.036,492.034,738.032,InConNoInc
2,pro,cue,1,DMCC8033964,pro_cue_run1_DMCC8033964,D4,e,c,InCon,l,1,2,yes,switch,green,black,green,Inc,2000,1,588,2,2,354263,358770,359358,117947,18,236.316,240.823,241.411,28.422,274.421,520.419,246.036,492.034,738.032,InConInc
2,pro,cue,1,DMCC8033964,pro_cue_run1_DMCC8033964,I6,e,v,Con,l,1,1,,,red,black,black,NoInc,3200,1,467,1,1,395074,399567,400034,117947,19,277.127,281.62,282.087,28.422,274.421,520.419,246.036,492.034,738.032,ConNoInc
2,pro,cue,1,DMCC8033964,pro_cue_run1_DMCC8033964,5H,o,c,Con,n,2,2,yes,switch,green,black,green,Inc,2000,1,527,2,2,407073,411566,412093,117947,20,289.126,293.619,294.146,28.422,274.421,520.419,246.036,492.034,738.032,ConInc
2,pro,cue,1,DMCC8033964,pro_cue_run1_DMCC8033964,B1,o,c,Con,l,2,2,,switch,red,black,black,NoInc,4400,1,509,2,2,417873,422366,422875,117947,21,299.926,304.419,304.928,28.422,274.421,520.419,246.036,492.034,738.032,ConNoInc
2,pro,cue,1,DMCC8033964,pro_cue_run1_DMCC8033964,A2,e,v,Con,n,1,1,,switch,red,black,black,NoInc,4400,1,471,1,1,431072,435565,436036,117947,22,313.125,317.618,318.089,28.422,274.421,520.419,246.036,492.034,738.032,ConNoInc
2,pro,cue,1,DMCC8033964,pro_cue_run1_DMCC8033964,2A,e,v,Con,l,1,1,,switch,red,black,black,NoInc,2000,1,565,1,1,444271,448764,449329,117947,23,326.324,330.817,331.382,28.422,274.421,520.419,246.036,492.034,738.032,ConNoInc
2,pro,cue,1,DMCC8033964,pro_cue_run1_DMCC8033964,D4,e,c,InCon,l,1,2,yes,stay,green,black,green,Inc,3200,1,574,2,2,455070,459563,460137,117947,24,337.123,341.616,342.19,28.422,274.421,520.419,246.036,492.034,738.032,InConInc
2,pro,cue,1,DMCC8033964,pro_cue_run1_DMCC8033964,3E,o,v,InCon,l,2,1,yes,stay,green,black,green,Inc,3200,1,457,1,1,467070,471563,472020,117947,25,349.123,353.616,354.073,28.422,274.421,520.419,246.036,492.034,738.032,InConInc
2,pro,cue,1,DMCC8033964,pro_cue_run1_DMCC8033964,2B,e,c,InCon,l,1,2,,stay,red,black,black,NoInc,2000,1,504,2,2,479069,483562,484066,117947,26,361.122,365.615,366.119,28.422,274.421,520.419,246.036,492.034,738.032,InConNoInc
2,pro,cue,1,DMCC8033964,pro_cue_run1_DMCC8033964,1B,o,c,Con,n,2,2,,switch,red,black,black,NoInc,4400,1,520,2,2,489868,494375,494895,117947,27,371.921,376.428,376.948,28.422,274.421,520.419,246.036,492.034,738.032,ConNoInc
2,pro,cue,1,DMCC8033964,pro_cue_run1_DMCC8033964,1B,o,c,Con,l,2,2,,switch,red,black,black,NoInc,3200,1,530,2,2,503067,507574,508104,117947,28,385.12,389.627,390.157,28.422,274.421,520.419,246.036,492.034,738.032,ConNoInc
2,pro,cue,1,DMCC8033964,pro_cue_run1_DMCC8033964,A1,o,v,InCon,n,2,1,,switch,red,black,black,NoInc,2000,1,511,2,2,515067,519573,520084,117947,29,397.12,401.626,402.137,28.422,274.421,520.419,246.036,492.034,738.032,InConNoInc
2,pro,cue,1,DMCC8033964,pro_cue_run1_DMCC8033964,2A,e,v,Con,l,1,1,,switch,red,black,black,NoInc,4400,1,604,1,1,525866,530372,530976,117947,30,407.919,412.425,413.029,28.422,274.421,520.419,246.036,492.034,738.032,ConNoInc
2,pro,cue,1,DMCC8033964,pro_cue_run1_DMCC8033964,2A,e,v,Con,n,1,1,,switch,red,black,black,NoInc,2000,1,468,1,1,539065,543572,544040,117947,31,421.118,425.625,426.093,28.422,274.421,520.419,246.036,492.034,738.032,ConNoInc
2,pro,cue,1,DMCC8033964,pro_cue_run1_DMCC8033964,E3,o,v,InCon,n,2,1,yes,stay,green,black,green,Inc,4400,1,449,2,2,549865,554371,554820,117947,32,431.918,436.424,436.873,28.422,274.421,520.419,246.036,492.034,738.032,InConInc
2,pro,cue,1,DMCC8033964,pro_cue_run1_DMCC8033964,3E,o,v,InCon,n,2,1,yes,stay,green,black,green,Inc,4400,1,532,2,2,563064,567570,568102,117947,33,445.117,449.623,450.155,28.422,274.421,520.419,246.036,492.034,738.032,InConInc
2,pro,cue,1,DMCC8033964,pro_cue_run1_DMCC8033964,E3,o,v,InCon,n,2,1,yes,stay,green,black,green,Inc,2000,1,480,2,2,576263,580769,581249,117947,34,458.316,462.822,463.302,28.422,274.421,520.419,246.036,492.034,738.032,InConInc
2,pro,cue,1,DMCC8033964,pro_cue_run1_DMCC8033964,5H,o,c,Con,l,2,2,,switch,red,black,black,NoInc,3200,1,522,2,2,587062,591569,592091,117947,35,469.115,473.622,474.144,28.422,274.421,520.419,246.036,492.034,738.032,ConNoInc
2,pro,cue,1,DMCC8033964,pro_cue_run1_DMCC8033964,6I,e,v,Con,n,1,1,,switch,red,black,black,NoInc,3200,1,536,1,1,599062,603568,604104,117947,36,481.115,485.621,486.157,28.422,274.421,520.419,246.036,492.034,738.032,ConNoInc
2,pro,cue,1,DMCC8033964,pro_cue_run1_DMCC8033964,H5,o,c,Con,l,2,2,yes,,green,black,green,Inc,4400,1,475,2,2,641072,645565,646040,117947,37,523.125,527.618,528.093,28.422,274.421,520.419,246.036,492.034,738.032,ConInc
2,pro,cue,1,DMCC8033964,pro_cue_run1_DMCC8033964,6I,e,v,Con,l,1,1,,stay,red,black,black,NoInc,2000,1,571,1,1,654271,658765,659336,117947,38,536.324,540.818,541.389,28.422,274.421,520.419,246.036,492.034,738.032,ConNoInc
2,pro,cue,1,DMCC8033964,pro_cue_run1_DMCC8033964,4D,e,c,InCon,l,1,2,yes,stay,green,black,green,Inc,4400,1,500,2,2,665071,669564,670064,117947,39,547.124,551.617,552.117,28.422,274.421,520.419,246.036,492.034,738.032,InConInc
2,pro,cue,1,DMCC8033964,pro_cue_run1_DMCC8033964,B1,o,c,Con,n,2,2,,switch,red,black,black,NoInc,3200,1,518,2,2,678270,682763,683281,117947,40,560.323,564.816,565.334,28.422,274.421,520.419,246.036,492.034,738.032,ConNoInc
2,pro,cue,1,DMCC8033964,pro_cue_run1_DMCC8033964,3E,o,v,InCon,l,2,1,yes,switch,green,black,green,Inc,3200,1,516,1,1,690269,694762,695278,117947,41,572.322,576.815,577.331,28.422,274.421,520.419,246.036,492.034,738.032,InConInc
2,pro,cue,1,DMCC8033964,pro_cue_run1_DMCC8033964,1B,o,c,Con,n,2,2,,switch,red,black,black,NoInc,2000,1,526,2,2,702269,706775,707301,117947,42,584.322,588.828,589.354,28.422,274.421,520.419,246.036,492.034,738.032,ConNoInc
2,pro,cue,1,DMCC8033964,pro_cue_run1_DMCC8033964,3E,o,v,InCon,n,2,1,yes,stay,green,black,green,Inc,4400,1,512,2,2,713068,717574,718086,117947,43,595.121,599.627,600.139,28.422,274.421,520.419,246.036,492.034,738.032,InConInc
2,pro,cue,1,DMCC8033964,pro_cue_run1_DMCC8033964,A2,e,v,Con,l,1,1,,switch,red,black,black,NoInc,2000,1,465,1,1,726267,730773,731238,117947,44,608.32,612.826,613.291,28.422,274.421,520.419,246.036,492.034,738.032,ConNoInc
2,pro,cue,1,DMCC8033964,pro_cue_run1_DMCC8033964,E3,o,v,InCon,l,2,1,yes,stay,green,black,green,Inc,3200,1,517,1,1,737066,741573,742090,117947,45,619.119,623.626,624.143,28.422,274.421,520.419,246.036,492.034,738.032,InConInc
2,pro,cue,1,DMCC8033964,pro_cue_run1_DMCC8033964,B1,o,c,Con,l,2,2,,stay,red,black,black,NoInc,3200,1,567,2,2,749066,753572,754139,117947,46,631.119,635.625,636.192,28.422,274.421,520.419,246.036,492.034,738.032,ConNoInc
2,pro,cue,1,DMCC8033964,pro_cue_run1_DMCC8033964,2A,e,v,Con,n,1,1,,switch,red,black,black,NoInc,2000,1,834,1,1,761065,765571,766405,117947,47,643.118,647.624,648.458,28.422,274.421,520.419,246.036,492.034,738.032,ConNoInc
2,pro,cue,1,DMCC8033964,pro_cue_run1_DMCC8033964,A2,e,v,Con,n,1,1,,stay,red,black,black,NoInc,4400,1,441,1,1,771864,776371,776812,117947,48,653.917,658.424,658.865,28.422,274.421,520.419,246.036,492.034,738.032,ConNoInc
2,pro,cue,1,DMCC8033964,pro_cue_run1_DMCC8033964,H5,o,c,Con,n,2,2,,stay,red,black,black,NoInc,4400,1,541,2,2,785063,789570,790111,117947,49,667.116,671.623,672.164,28.422,274.421,520.419,246.036,492.034,738.032,ConNoInc
2,pro,cue,1,DMCC8033964,pro_cue_run1_DMCC8033964,2A,e,v,Con,l,1,1,,switch,red,black,black,NoInc,3200,1,554,1,1,798263,802769,803323,117947,50,680.316,684.822,685.376,28.422,274.421,520.419,246.036,492.034,738.032,ConNoInc
2,pro,cue,1,DMCC8033964,pro_cue_run1_DMCC8033964,4D,e,c,InCon,n,1,2,yes,switch,green,black,green,Inc,2000,1,561,1,1,810262,814768,815329,117947,51,692.315,696.821,697.382,28.422,274.421,520.419,246.036,492.034,738.032,InConInc
2,pro,cue,1,DMCC8033964,pro_cue_run1_DMCC8033964,1B,o,c,Con,l,2,2,,switch,red,black,black,NoInc,4400,1,509,2,2,821075,825568,826077,117947,52,703.128,707.621,708.13,28.422,274.421,520.419,246.036,492.034,738.032,ConNoInc
2,pro,cue,1,DMCC8033964,pro_cue_run1_DMCC8033964,6I,e,v,Con,n,1,1,,switch,red,black,black,NoInc,2000,1,546,1,1,834274,838767,839313,117947,53,716.327,720.82,721.366,28.422,274.421,520.419,246.036,492.034,738.032,ConNoInc
2,pro,cue,1,DMCC8033964,pro_cue_run1_DMCC8033964,1A,o,v,InCon,n,2,1,,stay,red,black,black,NoInc,3200,1,624,2,2,845073,849566,850190,117947,54,727.126,731.619,732.243,28.422,274.421,520.419,246.036,492.034,738.032,InConNoInc
2,pro,cue,2,DMCC8033964,pro_cue_run2_DMCC8033964,E3,o,v,InCon,n,2,1,yes,,green,black,green,Inc,4400,1,513,2,2,74604,79097,79610,43491,1,31.113,35.606,36.119,28.406,274.418,520.416,246.019,492.018,738.016,InConInc
2,pro,cue,2,DMCC8033964,pro_cue_run2_DMCC8033964,B2,e,c,InCon,l,1,2,,switch,red,black,black,NoInc,2000,1,502,2,2,87803,92296,92798,43491,2,44.312,48.805,49.307,28.406,274.418,520.416,246.019,492.018,738.016,InConNoInc
2,pro,cue,2,DMCC8033964,pro_cue_run2_DMCC8033964,D4,e,c,InCon,n,1,2,yes,switch,green,black,green,Inc,4400,1,609,1,1,98602,103109,103718,43491,3,55.111,59.618,60.227,28.406,274.418,520.416,246.019,492.018,738.016,InConInc
2,pro,cue,2,DMCC8033964,pro_cue_run2_DMCC8033964,B1,o,c,Con,n,2,2,,stay,red,black,black,NoInc,4400,1,541,2,2,111801,116308,116849,43491,4,68.31,72.817,73.358,28.406,274.418,520.416,246.019,492.018,738.016,ConNoInc
2,pro,cue,2,DMCC8033964,pro_cue_run2_DMCC8033964,B1,o,c,Con,l,2,2,,switch,red,black,black,NoInc,3200,1,617,2,2,125001,129507,130124,43491,5,81.51,86.016,86.633,28.406,274.418,520.416,246.019,492.018,738.016,ConNoInc
2,pro,cue,2,DMCC8033964,pro_cue_run2_DMCC8033964,3E,o,v,InCon,n,2,1,yes,switch,green,black,green,Inc,3200,1,509,2,2,137000,141506,142015,43491,6,93.509,98.015,98.524,28.406,274.418,520.416,246.019,492.018,738.016,InConInc
2,pro,cue,2,DMCC8033964,pro_cue_run2_DMCC8033964,1B,o,c,Con,l,2,2,,switch,red,black,black,NoInc,3200,1,572,2,2,148999,153505,154077,43491,7,105.508,110.014,110.586,28.406,274.418,520.416,246.019,492.018,738.016,ConNoInc
2,pro,cue,2,DMCC8033964,pro_cue_run2_DMCC8033964,4D,e,c,InCon,l,1,2,yes,stay,green,black,green,Inc,2000,1,500,2,2,160998,165505,166005,43491,8,117.507,122.014,122.514,28.406,274.418,520.416,246.019,492.018,738.016,InConInc
2,pro,cue,2,DMCC8033964,pro_cue_run2_DMCC8033964,6I,e,v,Con,n,1,1,,switch,red,black,black,NoInc,2000,1,508,1,1,171798,176304,176812,43491,9,128.307,132.813,133.321,28.406,274.418,520.416,246.019,492.018,738.016,ConNoInc
2,pro,cue,2,DMCC8033964,pro_cue_run2_DMCC8033964,1B,o,c,Con,n,2,2,,stay,red,black,black,NoInc,3200,0,555,1,2,182597,187103,187658,43491,10,139.106,143.612,144.167,28.406,274.418,520.416,246.019,492.018,738.016,ConNoInc
2,pro,cue,2,DMCC8033964,pro_cue_run2_DMCC8033964,E3,o,v,InCon,l,2,1,yes,switch,green,black,green,Inc,4400,1,482,1,1,194596,199103,199585,43491,11,151.105,155.612,156.094,28.406,274.418,520.416,246.019,492.018,738.016,InConInc
2,pro,cue,2,DMCC8033964,pro_cue_run2_DMCC8033964,H5,o,c,Con,l,2,2,,stay,red,black,black,NoInc,3200,1,600,2,2,207809,212302,212902,43491,12,164.318,168.811,169.411,28.406,274.418,520.416,246.019,492.018,738.016,ConNoInc
2,pro,cue,2,DMCC8033964,pro_cue_run2_DMCC8033964,2A,e,v,Con,l,1,1,,stay,red,black,black,NoInc,2000,1,565,1,1,219808,224301,224866,43491,13,176.317,180.81,181.375,28.406,274.418,520.416,246.019,492.018,738.016,ConNoInc
2,pro,cue,2,DMCC8033964,pro_cue_run2_DMCC8033964,6I,e,v,Con,l,1,1,yes,stay,green,black,green,Inc,4400,1,494,1,1,230607,235100,235594,43491,14,187.116,191.609,192.103,28.406,274.418,520.416,246.019,492.018,738.016,ConInc
2,pro,cue,2,DMCC8033964,pro_cue_run2_DMCC8033964,2A,e,v,Con,n,1,1,,switch,red,black,black,NoInc,3200,1,567,1,1,243807,248300,248867,43491,15,200.316,204.809,205.376,28.406,274.418,520.416,246.019,492.018,738.016,ConNoInc
2,pro,cue,2,DMCC8033964,pro_cue_run2_DMCC8033964,A2,e,v,Con,n,1,1,,stay,red,black,black,NoInc,2000,1,531,1,1,255806,260299,260830,43491,16,212.315,216.808,217.339,28.406,274.418,520.416,246.019,492.018,738.016,ConNoInc
2,pro,cue,2,DMCC8033964,pro_cue_run2_DMCC8033964,5H,o,c,Con,n,2,2,,stay,red,black,black,NoInc,2000,1,571,2,2,266605,271098,271669,43491,17,223.114,227.607,228.178,28.406,274.418,520.416,246.019,492.018,738.016,ConNoInc
2,pro,cue,2,DMCC8033964,pro_cue_run2_DMCC8033964,A2,e,v,Con,l,1,1,,switch,red,black,black,NoInc,4400,1,669,1,1,277405,281898,282567,43491,18,233.914,238.407,239.076,28.406,274.418,520.416,246.019,492.018,738.016,ConNoInc
2,pro,cue,2,DMCC8033964,pro_cue_run2_DMCC8033964,2A,e,v,Con,l,1,1,,,red,black,black,NoInc,3200,1,561,1,1,320602,325108,325669,43491,19,277.111,281.617,282.178,28.406,274.418,520.416,246.019,492.018,738.016,ConNoInc
2,pro,cue,2,DMCC8033964,pro_cue_run2_DMCC8033964,5H,o,c,Con,l,2,2,yes,stay,green,black,green,Inc,4400,1,525,2,2,332601,337107,337632,43491,20,289.11,293.616,294.141,28.406,274.418,520.416,246.019,492.018,738.016,ConInc
2,pro,cue,2,DMCC8033964,pro_cue_run2_DMCC8033964,4D,e,c,InCon,n,1,2,yes,switch,green,black,green,Inc,2000,1,712,1,1,345800,350307,351019,43491,21,302.309,306.816,307.528,28.406,274.418,520.416,246.019,492.018,738.016,InConInc
2,pro,cue,2,DMCC8033964,pro_cue_run2_DMCC8033964,2A,e,v,Con,n,1,1,,stay,red,black,black,NoInc,3200,1,480,1,1,356600,361106,361586,43491,22,313.109,317.615,318.095,28.406,274.418,520.416,246.019,492.018,738.016,ConNoInc
2,pro,cue,2,DMCC8033964,pro_cue_run2_DMCC8033964,H5,o,c,Con,l,2,2,,switch,red,black,black,NoInc,2000,1,523,2,2,368599,373105,373628,43491,23,325.108,329.614,330.137,28.406,274.418,520.416,246.019,492.018,738.016,ConNoInc
2,pro,cue,2,DMCC8033964,pro_cue_run2_DMCC8033964,A2,e,v,Con,l,1,1,,stay,red,black,black,NoInc,3200,1,512,1,1,379398,383905,384417,43491,24,335.907,340.414,340.926,28.406,274.418,520.416,246.019,492.018,738.016,ConNoInc
2,pro,cue,2,DMCC8033964,pro_cue_run2_DMCC8033964,D4,e,c,InCon,n,1,2,yes,switch,green,black,green,Inc,2000,1,506,1,1,391397,395904,396410,43491,25,347.906,352.413,352.919,28.406,274.418,520.416,246.019,492.018,738.016,InConInc
2,pro,cue,2,DMCC8033964,pro_cue_run2_DMCC8033964,1A,o,v,InCon,n,2,1,,stay,red,black,black,NoInc,4400,1,527,2,2,402197,406703,407230,43491,26,358.706,363.212,363.739,28.406,274.418,520.416,246.019,492.018,738.016,InConNoInc
2,pro,cue,2,DMCC8033964,pro_cue_run2_DMCC8033964,1B,o,c,Con,l,2,2,,switch,red,black,black,NoInc,4400,1,665,2,2,415396,419902,420567,43491,27,371.905,376.411,377.076,28.406,274.418,520.416,246.019,492.018,738.016,ConNoInc
2,pro,cue,2,DMCC8033964,pro_cue_run2_DMCC8033964,A2,e,v,Con,n,1,1,,switch,red,black,black,NoInc,2000,1,493,1,1,428609,433102,433595,43491,28,385.118,389.611,390.104,28.406,274.418,520.416,246.019,492.018,738.016,ConNoInc
2,pro,cue,2,DMCC8033964,pro_cue_run2_DMCC8033964,2B,e,c,InCon,n,1,2,,stay,red,black,black,NoInc,4400,1,510,1,1,439408,443901,444411,43491,29,395.917,400.41,400.92,28.406,274.418,520.416,246.019,492.018,738.016,InConNoInc
2,pro,cue,2,DMCC8033964,pro_cue_run2_DMCC8033964,3E,o,v,InCon,l,2,1,yes,switch,green,black,green,Inc,3200,1,542,1,1,452607,457100,457642,43491,30,409.116,413.609,414.151,28.406,274.418,520.416,246.019,492.018,738.016,InConInc
2,pro,cue,2,DMCC8033964,pro_cue_run2_DMCC8033964,I6,e,v,Con,n,1,1,yes,switch,green,black,green,Inc,3200,1,614,1,1,464606,469099,469713,43491,31,421.115,425.608,426.222,28.406,274.418,520.416,246.019,492.018,738.016,ConInc
2,pro,cue,2,DMCC8033964,pro_cue_run2_DMCC8033964,B1,o,c,Con,n,2,2,,stay,red,black,black,NoInc,2000,1,513,2,2,476606,481099,481612,43491,32,433.115,437.608,438.121,28.406,274.418,520.416,246.019,492.018,738.016,ConNoInc
2,pro,cue,2,DMCC8033964,pro_cue_run2_DMCC8033964,D4,e,c,InCon,l,1,2,yes,switch,green,black,green,Inc,2000,1,526,2,2,487405,491898,492424,43491,33,443.914,448.407,448.933,28.406,274.418,520.416,246.019,492.018,738.016,InConInc
2,pro,cue,2,DMCC8033964,pro_cue_run2_DMCC8033964,I6,e,v,Con,l,1,1,,stay,red,black,black,NoInc,4400,1,809,1,1,498204,502697,503506,43491,34,454.713,459.206,460.015,28.406,274.418,520.416,246.019,492.018,738.016,ConNoInc
2,pro,cue,2,DMCC8033964,pro_cue_run2_DMCC8033964,I6,e,v,Con,n,1,1,,switch,red,black,black,NoInc,3200,1,502,1,1,511403,515896,516398,43491,35,467.912,472.405,472.907,28.406,274.418,520.416,246.019,492.018,738.016,ConNoInc
2,pro,cue,2,DMCC8033964,pro_cue_run2_DMCC8033964,B1,o,c,Con,l,2,2,,switch,red,black,black,NoInc,4400,1,766,2,2,523403,527896,528662,43491,36,479.912,484.405,485.171,28.406,274.418,520.416,246.019,492.018,738.016,ConNoInc
2,pro,cue,2,DMCC8033964,pro_cue_run2_DMCC8033964,4D,e,c,InCon,n,1,2,yes,,green,black,green,Inc,2000,1,480,1,1,566600,571106,571586,43491,37,523.109,527.615,528.095,28.406,274.418,520.416,246.019,492.018,738.016,InConInc
2,pro,cue,2,DMCC8033964,pro_cue_run2_DMCC8033964,A2,e,v,Con,l,1,1,,switch,red,black,black,NoInc,3200,1,553,1,1,577399,581906,582459,43491,38,533.908,538.415,538.968,28.406,274.418,520.416,246.019,492.018,738.016,ConNoInc
2,pro,cue,2,DMCC8033964,pro_cue_run2_DMCC8033964,E3,o,v,InCon,l,2,1,yes,stay,green,black,green,Inc,3200,1,544,1,1,589399,593905,594449,43491,39,545.908,550.414,550.958,28.406,274.418,520.416,246.019,492.018,738.016,InConInc
2,pro,cue,2,DMCC8033964,pro_cue_run2_DMCC8033964,3E,o,v,InCon,n,2,1,yes,switch,green,black,green,Inc,3200,1,552,2,2,601398,605904,606456,43491,40,557.907,562.413,562.965,28.406,274.418,520.416,246.019,492.018,738.016,InConInc
2,pro,cue,2,DMCC8033964,pro_cue_run2_DMCC8033964,H5,o,c,Con,n,2,2,yes,stay,green,black,green,Inc,4400,1,723,2,2,613397,617904,618627,43491,41,569.906,574.413,575.136,28.406,274.418,520.416,246.019,492.018,738.016,ConInc
2,pro,cue,2,DMCC8033964,pro_cue_run2_DMCC8033964,B1,o,c,Con,n,2,2,,stay,red,black,black,NoInc,4400,1,555,2,2,626596,631103,631658,43491,42,583.105,587.612,588.167,28.406,274.418,520.416,246.019,492.018,738.016,ConNoInc
2,pro,cue,2,DMCC8033964,pro_cue_run2_DMCC8033964,H5,o,c,Con,l,2,2,,switch,red,black,black,NoInc,4400,1,606,2,2,639796,644302,644908,43491,43,596.305,600.811,601.417,28.406,274.418,520.416,246.019,492.018,738.016,ConNoInc
2,pro,cue,2,DMCC8033964,pro_cue_run2_DMCC8033964,6I,e,v,Con,n,1,1,,switch,red,black,black,NoInc,2000,1,526,1,1,653008,657501,658027,43491,44,609.517,614.01,614.536,28.406,274.418,520.416,246.019,492.018,738.016,ConNoInc
2,pro,cue,2,DMCC8033964,pro_cue_run2_DMCC8033964,D4,e,c,InCon,l,1,2,yes,switch,green,black,green,Inc,2000,1,553,2,2,663807,668300,668853,43491,45,620.316,624.809,625.362,28.406,274.418,520.416,246.019,492.018,738.016,InConInc
2,pro,cue,2,DMCC8033964,pro_cue_run2_DMCC8033964,1B,o,c,Con,n,2,2,,switch,red,black,black,NoInc,3200,1,536,2,2,674607,679100,679636,43491,46,631.116,635.609,636.145,28.406,274.418,520.416,246.019,492.018,738.016,ConNoInc
2,pro,cue,2,DMCC8033964,pro_cue_run2_DMCC8033964,5H,o,c,Con,n,2,2,,stay,red,black,black,NoInc,4400,1,558,2,2,686606,691099,691657,43491,47,643.115,647.608,648.166,28.406,274.418,520.416,246.019,492.018,738.016,ConNoInc
2,pro,cue,2,DMCC8033964,pro_cue_run2_DMCC8033964,4D,e,c,InCon,l,1,2,yes,switch,green,black,green,Inc,4400,1,585,2,2,699805,704298,704883,43491,48,656.314,660.807,661.392,28.406,274.418,520.416,246.019,492.018,738.016,InConInc
2,pro,cue,2,DMCC8033964,pro_cue_run2_DMCC8033964,2B,e,c,InCon,l,1,2,,stay,red,black,black,NoInc,2000,1,588,2,2,713004,717497,718085,43491,49,669.513,674.006,674.594,28.406,274.418,520.416,246.019,492.018,738.016,InConNoInc
2,pro,cue,2,DMCC8033964,pro_cue_run2_DMCC8033964,B1,o,c,Con,l,2,2,,stay,red,black,black,NoInc,3200,1,595,2,2,723804,728297,728892,43491,50,680.313,684.806,685.401,28.406,274.418,520.416,246.019,492.018,738.016,ConNoInc
2,pro,cue,2,DMCC8033964,pro_cue_run2_DMCC8033964,1B,o,c,Con,l,2,2,,stay,red,black,black,NoInc,2000,1,586,2,2,735803,740296,740882,43491,51,692.312,696.805,697.391,28.406,274.418,520.416,246.019,492.018,738.016,ConNoInc
2,pro,cue,2,DMCC8033964,pro_cue_run2_DMCC8033964,2A,e,v,Con,n,1,1,,switch,red,black,black,NoInc,3200,1,601,1,1,746602,751109,751710,43491,52,703.111,707.618,708.219,28.406,274.418,520.416,246.019,492.018,738.016,ConNoInc
2,pro,cue,2,DMCC8033964,pro_cue_run2_DMCC8033964,A2,e,v,Con,n,1,1,,stay,red,black,black,NoInc,2000,1,578,1,1,758602,763108,763686,43491,53,715.111,719.617,720.195,28.406,274.418,520.416,246.019,492.018,738.016,ConNoInc
2,pro,cue,2,DMCC8033964,pro_cue_run2_DMCC8033964,A1,o,v,InCon,l,2,1,,switch,red,black,black,NoInc,4400,1,628,1,1,769401,773907,774535,43491,54,725.91,730.416,731.044,28.406,274.418,520.416,246.019,492.018,738.016,InConNoInc
2,rea,cue,1,DMCC8033964,rea_cue_run1_DMCC8033964,A2,e,v,Con,l,1,1,,,red,black,black,NoInc,2000,1,510,1,1,159663,164169,164679,128558,1,31.105,35.611,36.121,28.412,274.408,520.404,246.01,492.019,738.015,ConNoInc
2,rea,cue,1,DMCC8033964,rea_cue_run1_DMCC8033964,1A,o,v,InCon,l,2,1,,stay,red,black,black,NoInc,3200,1,525,1,1,170462,174969,175494,128558,2,41.904,46.411,46.936,28.412,274.408,520.404,246.01,492.019,738.015,InConNoInc
2,rea,cue,1,DMCC8033964,rea_cue_run1_DMCC8033964,B1,o,c,Con,l,2,2,,stay,red,black,black,NoInc,4400,1,573,2,2,182461,186968,187541,128558,3,53.903,58.41,58.983,28.412,274.408,520.404,246.01,492.019,738.015,ConNoInc
2,rea,cue,1,DMCC8033964,rea_cue_run1_DMCC8033964,E3,o,v,InCon,l,2,1,yes,stay,red,green,green,Inc,2000,1,644,1,1,195660,200167,200811,128558,4,67.102,71.609,72.253,28.412,274.408,520.404,246.01,492.019,738.015,InConInc
2,rea,cue,1,DMCC8033964,rea_cue_run1_DMCC8033964,I6,e,v,Con,l,1,1,yes,stay,red,green,green,Inc,3200,1,590,1,1,206460,210966,211556,128558,5,77.902,82.408,82.998,28.412,274.408,520.404,246.01,492.019,738.015,ConInc
2,rea,cue,1,DMCC8033964,rea_cue_run1_DMCC8033964,B2,e,c,InCon,n,1,2,,switch,red,black,black,NoInc,2000,1,647,1,1,218459,222965,223612,128558,6,89.901,94.407,95.054,28.412,274.408,520.404,246.01,492.019,738.015,InConNoInc
2,rea,cue,1,DMCC8033964,rea_cue_run1_DMCC8033964,B1,o,c,Con,n,2,2,,stay,red,black,black,NoInc,3200,1,589,2,2,229258,233764,234353,128558,7,100.7,105.206,105.795,28.412,274.408,520.404,246.01,492.019,738.015,ConNoInc
2,rea,cue,1,DMCC8033964,rea_cue_run1_DMCC8033964,4D,e,c,InCon,n,1,2,yes,stay,red,green,green,Inc,4400,1,562,1,1,241271,245764,246326,128558,8,112.713,117.206,117.768,28.412,274.408,520.404,246.01,492.019,738.015,InConInc
2,rea,cue,1,DMCC8033964,rea_cue_run1_DMCC8033964,1B,o,c,Con,l,2,2,,switch,red,black,black,NoInc,4400,1,564,2,2,254470,258963,259527,128558,9,125.912,130.405,130.969,28.412,274.408,520.404,246.01,492.019,738.015,ConNoInc
2,rea,cue,1,DMCC8033964,rea_cue_run1_DMCC8033964,2A,e,v,Con,n,1,1,,switch,red,black,black,NoInc,2000,1,481,1,1,267669,272162,272643,128558,10,139.111,143.604,144.085,28.412,274.408,520.404,246.01,492.019,738.015,ConNoInc
2,rea,cue,1,DMCC8033964,rea_cue_run1_DMCC8033964,1B,o,c,Con,n,2,2,,stay,red,black,black,NoInc,4400,1,542,2,2,278468,282961,283503,128558,11,149.91,154.403,154.945,28.412,274.408,520.404,246.01,492.019,738.015,ConNoInc
2,rea,cue,1,DMCC8033964,rea_cue_run1_DMCC8033964,D4,e,c,InCon,l,1,2,yes,switch,red,green,green,Inc,3200,1,739,2,2,291667,296160,296899,128558,12,163.109,167.602,168.341,28.412,274.408,520.404,246.01,492.019,738.015,InConInc
2,rea,cue,1,DMCC8033964,rea_cue_run1_DMCC8033964,5H,o,c,Con,l,2,2,,stay,red,black,black,NoInc,2000,1,790,2,2,303666,308159,308949,128558,13,175.108,179.601,180.391,28.412,274.408,520.404,246.01,492.019,738.015,ConNoInc
2,rea,cue,1,DMCC8033964,rea_cue_run1_DMCC8033964,H5,o,c,Con,l,2,2,,stay,red,black,black,NoInc,4400,1,551,2,2,314465,318958,319509,128558,14,185.907,190.4,190.951,28.412,274.408,520.404,246.01,492.019,738.015,ConNoInc
2,rea,cue,1,DMCC8033964,rea_cue_run1_DMCC8033964,D4,e,c,InCon,n,1,2,yes,switch,red,green,green,Inc,3200,1,500,1,1,327664,332158,332658,128558,15,199.106,203.6,204.1,28.412,274.408,520.404,246.01,492.019,738.015,InConInc
2,rea,cue,1,DMCC8033964,rea_cue_run1_DMCC8033964,I6,e,v,Con,n,1,1,,stay,red,black,black,NoInc,2000,1,499,1,1,339664,344170,344669,128558,16,211.106,215.612,216.111,28.412,274.408,520.404,246.01,492.019,738.015,ConNoInc
2,rea,cue,1,DMCC8033964,rea_cue_run1_DMCC8033964,6I,e,v,Con,n,1,1,yes,stay,red,green,green,Inc,4400,1,530,1,1,350463,354969,355499,128558,17,221.905,226.411,226.941,28.412,274.408,520.404,246.01,492.019,738.015,ConInc
2,rea,cue,1,DMCC8033964,rea_cue_run1_DMCC8033964,A2,e,v,Con,n,1,1,,stay,red,black,black,NoInc,3200,1,557,1,1,363662,368168,368725,128558,18,235.104,239.61,240.167,28.412,274.408,520.404,246.01,492.019,738.015,ConNoInc
2,rea,cue,1,DMCC8033964,rea_cue_run1_DMCC8033964,A1,o,v,InCon,n,2,1,,,red,black,black,NoInc,2000,1,513,2,2,405659,410165,410678,128558,19,277.101,281.607,282.12,28.412,274.408,520.404,246.01,492.019,738.015,InConNoInc
2,rea,cue,1,DMCC8033964,rea_cue_run1_DMCC8033964,B1,o,c,Con,l,2,2,,switch,red,black,black,NoInc,4400,1,717,2,2,416458,420965,421682,128558,20,287.9,292.407,293.124,28.412,274.408,520.404,246.01,492.019,738.015,ConNoInc
2,rea,cue,1,DMCC8033964,rea_cue_run1_DMCC8033964,D4,e,c,InCon,l,1,2,yes,stay,red,green,green,Inc,3200,1,656,2,2,429671,434164,434820,128558,21,301.113,305.606,306.262,28.412,274.408,520.404,246.01,492.019,738.015,InConInc
2,rea,cue,1,DMCC8033964,rea_cue_run1_DMCC8033964,1B,o,c,Con,l,2,2,,stay,red,black,black,NoInc,2000,1,557,2,2,441670,446163,446720,128558,22,313.112,317.605,318.162,28.412,274.408,520.404,246.01,492.019,738.015,ConNoInc
2,rea,cue,1,DMCC8033964,rea_cue_run1_DMCC8033964,A2,e,v,Con,n,1,1,,switch,red,black,black,NoInc,4400,1,550,1,1,452469,456962,457512,128558,23,323.911,328.404,328.954,28.412,274.408,520.404,246.01,492.019,738.015,ConNoInc
2,rea,cue,1,DMCC8033964,rea_cue_run1_DMCC8033964,I6,e,v,Con,l,1,1,,switch,red,black,black,NoInc,3200,1,572,1,1,465668,470161,470733,128558,24,337.11,341.603,342.175,28.412,274.408,520.404,246.01,492.019,738.015,ConNoInc
2,rea,cue,1,DMCC8033964,rea_cue_run1_DMCC8033964,E3,o,v,InCon,n,2,1,yes,switch,red,green,green,Inc,4400,1,561,2,2,477667,482160,482721,128558,25,349.109,353.602,354.163,28.412,274.408,520.404,246.01,492.019,738.015,InConInc
2,rea,cue,1,DMCC8033964,rea_cue_run1_DMCC8033964,3E,o,v,InCon,l,2,1,yes,switch,red,green,green,Inc,3200,1,546,1,1,490866,495359,495905,128558,26,362.308,366.801,367.347,28.412,274.408,520.404,246.01,492.019,738.015,InConInc
2,rea,cue,1,DMCC8033964,rea_cue_run1_DMCC8033964,6I,e,v,Con,n,1,1,,switch,red,black,black,NoInc,2000,1,668,1,1,502866,507359,508027,128558,27,374.308,378.801,379.469,28.412,274.408,520.404,246.01,492.019,738.015,ConNoInc
2,rea,cue,1,DMCC8033964,rea_cue_run1_DMCC8033964,1B,o,c,Con,n,2,2,,stay,red,black,black,NoInc,2000,1,596,2,2,513665,518158,518754,128558,28,385.107,389.6,390.196,28.412,274.408,520.404,246.01,492.019,738.015,ConNoInc
2,rea,cue,1,DMCC8033964,rea_cue_run1_DMCC8033964,2A,e,v,Con,l,1,1,,switch,red,black,black,NoInc,3200,1,566,1,1,524464,528970,529536,128558,29,395.906,400.412,400.978,28.412,274.408,520.404,246.01,492.019,738.015,ConNoInc
2,rea,cue,1,DMCC8033964,rea_cue_run1_DMCC8033964,2A,e,v,Con,l,1,1,,stay,red,black,black,NoInc,3200,1,575,1,1,536463,540969,541544,128558,30,407.905,412.411,412.986,28.412,274.408,520.404,246.01,492.019,738.015,ConNoInc
2,rea,cue,1,DMCC8033964,rea_cue_run1_DMCC8033964,5H,o,c,Con,n,2,2,yes,switch,red,green,green,Inc,2000,1,567,2,2,548462,552969,553536,128558,31,419.904,424.411,424.978,28.412,274.408,520.404,246.01,492.019,738.015,ConInc
2,rea,cue,1,DMCC8033964,rea_cue_run1_DMCC8033964,5H,o,c,Con,l,2,2,,switch,red,black,black,NoInc,4400,1,534,2,2,559262,563768,564302,128558,32,430.704,435.21,435.744,28.412,274.408,520.404,246.01,492.019,738.015,ConNoInc
2,rea,cue,1,DMCC8033964,rea_cue_run1_DMCC8033964,2A,e,v,Con,n,1,1,,switch,red,black,black,NoInc,4400,1,511,1,1,572461,576967,577478,128558,33,443.903,448.409,448.92,28.412,274.408,520.404,246.01,492.019,738.015,ConNoInc
2,rea,cue,1,DMCC8033964,rea_cue_run1_DMCC8033964,E3,o,v,InCon,n,2,1,yes,stay,red,green,green,Inc,2000,1,758,2,2,585660,590166,590924,128558,34,457.102,461.608,462.366,28.412,274.408,520.404,246.01,492.019,738.015,InConInc
2,rea,cue,1,DMCC8033964,rea_cue_run1_DMCC8033964,2B,e,c,InCon,l,1,2,,switch,red,black,black,NoInc,3200,1,561,2,2,596459,600965,601526,128558,35,467.901,472.407,472.968,28.412,274.408,520.404,246.01,492.019,738.015,InConNoInc
2,rea,cue,1,DMCC8033964,rea_cue_run1_DMCC8033964,3E,o,v,InCon,n,2,1,yes,switch,red,green,green,Inc,4400,1,577,2,2,608458,612964,613541,128558,36,479.9,484.406,484.983,28.412,274.408,520.404,246.01,492.019,738.015,InConInc
2,rea,cue,1,DMCC8033964,rea_cue_run1_DMCC8033964,B1,o,c,Con,n,2,2,,,red,black,black,NoInc,3200,1,569,2,2,651668,656161,656730,128558,37,523.11,527.603,528.172,28.412,274.408,520.404,246.01,492.019,738.015,ConNoInc
2,rea,cue,1,DMCC8033964,rea_cue_run1_DMCC8033964,1A,o,v,InCon,n,2,1,,stay,red,black,black,NoInc,3200,1,526,2,2,663668,668161,668687,128558,38,535.11,539.603,540.129,28.412,274.408,520.404,246.01,492.019,738.015,InConNoInc
2,rea,cue,1,DMCC8033964,rea_cue_run1_DMCC8033964,4D,e,c,InCon,l,1,2,yes,switch,red,green,green,Inc,3200,1,629,2,2,675667,680160,680789,128558,39,547.109,551.602,552.231,28.412,274.408,520.404,246.01,492.019,738.015,InConInc
2,rea,cue,1,DMCC8033964,rea_cue_run1_DMCC8033964,3E,o,v,InCon,l,2,1,yes,stay,red,green,green,Inc,2000,1,514,1,1,687666,692159,692673,128558,40,559.108,563.601,564.115,28.412,274.408,520.404,246.01,492.019,738.015,InConInc
2,rea,cue,1,DMCC8033964,rea_cue_run1_DMCC8033964,1B,o,c,Con,l,2,2,,stay,red,black,black,NoInc,4400,1,554,2,2,698465,702958,703512,128558,41,569.907,574.4,574.954,28.412,274.408,520.404,246.01,492.019,738.015,ConNoInc
2,rea,cue,1,DMCC8033964,rea_cue_run1_DMCC8033964,6I,e,v,Con,l,1,1,,stay,red,black,black,NoInc,4400,1,606,1,1,711664,716171,716777,128558,42,583.106,587.613,588.219,28.412,274.408,520.404,246.01,492.019,738.015,ConNoInc
2,rea,cue,1,DMCC8033964,rea_cue_run1_DMCC8033964,B1,o,c,Con,l,2,2,,stay,red,black,black,NoInc,2000,1,695,2,2,724863,729370,730065,128558,43,596.305,600.812,601.507,28.412,274.408,520.404,246.01,492.019,738.015,ConNoInc
2,rea,cue,1,DMCC8033964,rea_cue_run1_DMCC8033964,3E,o,v,InCon,n,2,1,yes,switch,red,green,green,Inc,4400,1,725,2,2,735662,740169,740894,128558,44,607.104,611.611,612.336,28.412,274.408,520.404,246.01,492.019,738.015,InConInc
2,rea,cue,1,DMCC8033964,rea_cue_run1_DMCC8033964,H5,o,c,Con,n,2,2,,stay,red,black,black,NoInc,2000,1,857,2,2,748862,753368,754225,128558,45,620.304,624.81,625.667,28.412,274.408,520.404,246.01,492.019,738.015,ConNoInc
2,rea,cue,1,DMCC8033964,rea_cue_run1_DMCC8033964,H5,o,c,Con,l,2,2,yes,switch,red,green,green,Inc,4400,1,675,2,2,759661,764167,764842,128558,46,631.103,635.609,636.284,28.412,274.408,520.404,246.01,492.019,738.015,ConInc
2,rea,cue,1,DMCC8033964,rea_cue_run1_DMCC8033964,2A,e,v,Con,n,1,1,,switch,red,black,black,NoInc,3200,1,583,1,1,772860,777366,777949,128558,47,644.302,648.808,649.391,28.412,274.408,520.404,246.01,492.019,738.015,ConNoInc
2,rea,cue,1,DMCC8033964,rea_cue_run1_DMCC8033964,4D,e,c,InCon,n,1,2,yes,stay,red,green,green,Inc,2000,1,613,1,1,784859,789365,789978,128558,48,656.301,660.807,661.42,28.412,274.408,520.404,246.01,492.019,738.015,InConInc
2,rea,cue,1,DMCC8033964,rea_cue_run1_DMCC8033964,A2,e,v,Con,l,1,1,,switch,red,black,black,NoInc,3200,1,590,1,1,795658,800165,800755,128558,49,667.1,671.607,672.197,28.412,274.408,520.404,246.01,492.019,738.015,ConNoInc
2,rea,cue,1,DMCC8033964,rea_cue_run1_DMCC8033964,2A,e,v,Con,l,1,1,,stay,red,black,black,NoInc,4400,1,586,1,1,807671,812164,812750,128558,50,679.113,683.606,684.192,28.412,274.408,520.404,246.01,492.019,738.015,ConNoInc
2,rea,cue,1,DMCC8033964,rea_cue_run1_DMCC8033964,6I,e,v,Con,n,1,1,,switch,red,black,black,NoInc,2000,1,571,1,1,820870,825363,825934,128558,51,692.312,696.805,697.376,28.412,274.408,520.404,246.01,492.019,738.015,ConNoInc
2,rea,cue,1,DMCC8033964,rea_cue_run1_DMCC8033964,A2,e,v,Con,n,1,1,,stay,red,black,black,NoInc,2000,1,597,1,1,831669,836162,836759,128558,52,703.111,707.604,708.201,28.412,274.408,520.404,246.01,492.019,738.015,ConNoInc
2,rea,cue,1,DMCC8033964,rea_cue_run1_DMCC8033964,1B,o,c,Con,n,2,2,,stay,red,black,black,NoInc,3200,1,556,2,2,842468,846961,847517,128558,53,713.91,718.403,718.959,28.412,274.408,520.404,246.01,492.019,738.015,ConNoInc
2,rea,cue,1,DMCC8033964,rea_cue_run1_DMCC8033964,E3,o,v,InCon,l,2,1,yes,switch,red,green,green,Inc,4400,1,597,1,1,854467,858960,859557,128558,54,725.909,730.402,730.999,28.412,274.408,520.404,246.01,492.019,738.015,InConInc
2,rea,cue,2,DMCC8033964,rea_cue_run2_DMCC8033964,6I,e,v,Con,l,1,1,yes,,red,green,green,Inc,2000,1,665,1,1,68866,73359,74024,37751,1,31.115,35.608,36.273,28.409,274.405,520.414,246.02,492.016,738.026,ConInc
2,rea,cue,2,DMCC8033964,rea_cue_run2_DMCC8033964,E3,o,v,InCon,l,2,1,yes,stay,red,green,green,Inc,3200,1,569,1,1,79666,84159,84728,37751,2,41.915,46.408,46.977,28.409,274.405,520.414,246.02,492.016,738.026,InConInc
2,rea,cue,2,DMCC8033964,rea_cue_run2_DMCC8033964,2A,e,v,Con,n,1,1,,switch,red,black,black,NoInc,4400,1,512,1,1,91665,96158,96670,37751,3,53.914,58.407,58.919,28.409,274.405,520.414,246.02,492.016,738.026,ConNoInc
2,rea,cue,2,DMCC8033964,rea_cue_run2_DMCC8033964,1B,o,c,Con,n,2,2,,stay,red,black,black,NoInc,3200,1,682,2,2,104864,109357,110039,37751,4,67.113,71.606,72.288,28.409,274.405,520.414,246.02,492.016,738.026,ConNoInc
2,rea,cue,2,DMCC8033964,rea_cue_run2_DMCC8033964,6I,e,v,Con,n,1,1,,stay,red,black,black,NoInc,2000,1,535,1,1,116863,121356,121891,37751,5,79.112,83.605,84.14,28.409,274.405,520.414,246.02,492.016,738.026,ConNoInc
2,rea,cue,2,DMCC8033964,rea_cue_run2_DMCC8033964,A2,e,v,Con,n,1,1,,stay,red,black,black,NoInc,2000,1,588,1,1,127662,132155,132743,37751,6,89.911,94.404,94.992,28.409,274.405,520.414,246.02,492.016,738.026,ConNoInc
2,rea,cue,2,DMCC8033964,rea_cue_run2_DMCC8033964,H5,o,c,Con,l,2,2,,switch,red,black,black,NoInc,4400,1,570,2,2,138462,142968,143538,37751,7,100.711,105.217,105.787,28.409,274.405,520.414,246.02,492.016,738.026,ConNoInc
2,rea,cue,2,DMCC8033964,rea_cue_run2_DMCC8033964,1B,o,c,Con,l,2,2,,stay,red,black,black,NoInc,3200,1,598,2,2,151661,156167,156765,37751,8,113.91,118.416,119.014,28.409,274.405,520.414,246.02,492.016,738.026,ConNoInc
2,rea,cue,2,DMCC8033964,rea_cue_run2_DMCC8033964,4D,e,c,InCon,l,1,2,yes,stay,red,green,green,Inc,4400,1,608,2,2,163660,168166,168774,37751,9,125.909,130.415,131.023,28.409,274.405,520.414,246.02,492.016,738.026,InConInc
2,rea,cue,2,DMCC8033964,rea_cue_run2_DMCC8033964,2A,e,v,Con,l,1,1,,stay,red,black,black,NoInc,3200,1,609,1,1,176859,181365,181974,37751,10,139.108,143.614,144.223,28.409,274.405,520.414,246.02,492.016,738.026,ConNoInc
2,rea,cue,2,DMCC8033964,rea_cue_run2_DMCC8033964,5H,o,c,Con,n,2,2,,switch,red,black,black,NoInc,4400,1,577,2,2,188858,193364,193941,37751,11,151.107,155.613,156.19,28.409,274.405,520.414,246.02,492.016,738.026,ConNoInc
2,rea,cue,2,DMCC8033964,rea_cue_run2_DMCC8033964,3E,o,v,InCon,n,2,1,yes,stay,red,green,green,Inc,4400,1,652,2,2,202057,206563,207215,37751,12,164.306,168.812,169.464,28.409,274.405,520.414,246.02,492.016,738.026,InConInc
2,rea,cue,2,DMCC8033964,rea_cue_run2_DMCC8033964,B1,o,c,Con,l,2,2,,switch,red,black,black,NoInc,2000,1,766,2,2,215256,219762,220528,37751,13,177.505,182.011,182.777,28.409,274.405,520.414,246.02,492.016,738.026,ConNoInc
2,rea,cue,2,DMCC8033964,rea_cue_run2_DMCC8033964,A2,e,v,Con,l,1,1,,stay,red,black,black,NoInc,2000,1,575,1,1,226055,230562,231137,37751,14,188.304,192.811,193.386,28.409,274.405,520.414,246.02,492.016,738.026,ConNoInc
2,rea,cue,2,DMCC8033964,rea_cue_run2_DMCC8033964,B1,o,c,Con,n,2,2,,switch,red,black,black,NoInc,3200,1,1011,2,2,236855,241361,242372,37751,15,199.104,203.61,204.621,28.409,274.405,520.414,246.02,492.016,738.026,ConNoInc
2,rea,cue,2,DMCC8033964,rea_cue_run2_DMCC8033964,D4,e,c,InCon,n,1,2,yes,stay,red,green,green,Inc,2000,1,698,1,1,248867,253360,254058,37751,16,211.116,215.609,216.307,28.409,274.405,520.414,246.02,492.016,738.026,InConInc
2,rea,cue,2,DMCC8033964,rea_cue_run2_DMCC8033964,B2,e,c,InCon,l,1,2,,switch,red,black,black,NoInc,4400,1,603,2,2,259666,264159,264762,37751,17,221.915,226.408,227.011,28.409,274.405,520.414,246.02,492.016,738.026,InConNoInc
2,rea,cue,2,DMCC8033964,rea_cue_run2_DMCC8033964,E3,o,v,InCon,n,2,1,yes,switch,red,green,green,Inc,3200,1,588,2,2,272865,277358,277946,37751,18,235.114,239.607,240.195,28.409,274.405,520.414,246.02,492.016,738.026,InConInc
2,rea,cue,2,DMCC8033964,rea_cue_run2_DMCC8033964,2A,e,v,Con,l,1,1,,,red,black,black,NoInc,4400,1,568,1,1,314862,319355,319923,37751,19,277.111,281.604,282.172,28.409,274.405,520.414,246.02,492.016,738.026,ConNoInc
2,rea,cue,2,DMCC8033964,rea_cue_run2_DMCC8033964,5H,o,c,Con,l,2,2,yes,stay,red,green,green,Inc,3200,1,776,2,2,328062,332568,333344,37751,20,290.311,294.817,295.593,28.409,274.405,520.414,246.02,492.016,738.026,ConInc
2,rea,cue,2,DMCC8033964,rea_cue_run2_DMCC8033964,1B,o,c,Con,l,2,2,,stay,red,black,black,NoInc,3200,1,662,2,2,340061,344567,345229,37751,21,302.31,306.816,307.478,28.409,274.405,520.414,246.02,492.016,738.026,ConNoInc
2,rea,cue,2,DMCC8033964,rea_cue_run2_DMCC8033964,B1,o,c,Con,n,2,2,,switch,red,black,black,NoInc,2000,1,589,2,2,352060,356566,357155,37751,22,314.309,318.815,319.404,28.409,274.405,520.414,246.02,492.016,738.026,ConNoInc
2,rea,cue,2,DMCC8033964,rea_cue_run2_DMCC8033964,1A,o,v,InCon,n,2,1,,stay,red,black,black,NoInc,2000,1,851,2,2,362859,367365,368216,37751,23,325.108,329.614,330.465,28.409,274.405,520.414,246.02,492.016,738.026,InConNoInc
2,rea,cue,2,DMCC8033964,rea_cue_run2_DMCC8033964,A2,e,v,Con,n,1,1,,stay,red,black,black,NoInc,4400,1,567,1,1,373658,378165,378732,37751,24,335.907,340.414,340.981,28.409,274.405,520.414,246.02,492.016,738.026,ConNoInc
2,rea,cue,2,DMCC8033964,rea_cue_run2_DMCC8033964,B1,o,c,Con,l,2,2,,switch,red,black,black,NoInc,2000,1,862,2,2,386857,391364,392226,37751,25,349.106,353.613,354.475,28.409,274.405,520.414,246.02,492.016,738.026,ConNoInc
2,rea,cue,2,DMCC8033964,rea_cue_run2_DMCC8033964,D4,e,c,InCon,l,1,2,yes,stay,red,green,green,Inc,3200,1,657,2,2,397657,402163,402820,37751,26,359.906,364.412,365.069,28.409,274.405,520.414,246.02,492.016,738.026,InConInc
2,rea,cue,2,DMCC8033964,rea_cue_run2_DMCC8033964,2A,e,v,Con,n,1,1,,switch,red,black,black,NoInc,4400,1,579,1,1,409656,414162,414741,37751,27,371.905,376.411,376.99,28.409,274.405,520.414,246.02,492.016,738.026,ConNoInc
2,rea,cue,2,DMCC8033964,rea_cue_run2_DMCC8033964,2B,e,c,InCon,n,1,2,,stay,red,black,black,NoInc,2000,1,653,1,1,422855,427361,428014,37751,28,385.104,389.61,390.263,28.409,274.405,520.414,246.02,492.016,738.026,InConNoInc
2,rea,cue,2,DMCC8033964,rea_cue_run2_DMCC8033964,4D,e,c,InCon,n,1,2,yes,stay,red,green,green,Inc,4400,1,592,1,1,433667,438160,438752,37751,29,395.916,400.409,401.001,28.409,274.405,520.414,246.02,492.016,738.026,InConInc
2,rea,cue,2,DMCC8033964,rea_cue_run2_DMCC8033964,I6,e,v,Con,l,1,1,,switch,red,black,black,NoInc,3200,1,617,1,1,446867,451360,451977,37751,30,409.116,413.609,414.226,28.409,274.405,520.414,246.02,492.016,738.026,ConNoInc
2,rea,cue,2,DMCC8033964,rea_cue_run2_DMCC8033964,A2,e,v,Con,l,1,1,,stay,red,black,black,NoInc,3200,1,667,1,1,458866,463359,464026,37751,31,421.115,425.608,426.275,28.409,274.405,520.414,246.02,492.016,738.026,ConNoInc
2,rea,cue,2,DMCC8033964,rea_cue_run2_DMCC8033964,3E,o,v,InCon,l,2,1,yes,stay,red,green,green,Inc,3200,1,855,1,1,470865,475358,476213,37751,32,433.114,437.607,438.462,28.409,274.405,520.414,246.02,492.016,738.026,InConInc
2,rea,cue,2,DMCC8033964,rea_cue_run2_DMCC8033964,I6,e,v,Con,n,1,1,yes,switch,red,green,green,Inc,4400,1,743,1,1,482864,487357,488100,37751,33,445.113,449.606,450.349,28.409,274.405,520.414,246.02,492.016,738.026,ConInc
2,rea,cue,2,DMCC8033964,rea_cue_run2_DMCC8033964,H5,o,c,Con,l,2,2,,switch,red,black,black,NoInc,2000,1,1127,2,2,496063,500556,501683,37751,34,458.312,462.805,463.932,28.409,274.405,520.414,246.02,492.016,738.026,ConNoInc
2,rea,cue,2,DMCC8033964,rea_cue_run2_DMCC8033964,I6,e,v,Con,n,1,1,,switch,red,black,black,NoInc,4400,1,627,1,1,506862,511355,511982,37751,35,469.111,473.604,474.231,28.409,274.405,520.414,246.02,492.016,738.026,ConNoInc
2,rea,cue,2,DMCC8033964,rea_cue_run2_DMCC8033964,D4,e,c,InCon,n,1,2,yes,stay,red,green,green,Inc,2000,1,615,1,1,520061,524568,525183,37751,36,482.31,486.817,487.432,28.409,274.405,520.414,246.02,492.016,738.026,InConInc
2,rea,cue,2,DMCC8033964,rea_cue_run2_DMCC8033964,H5,o,c,Con,n,2,2,yes,,red,green,green,Inc,3200,1,690,2,2,560858,565365,566055,37751,37,523.107,527.614,528.304,28.409,274.405,520.414,246.02,492.016,738.026,ConInc
2,rea,cue,2,DMCC8033964,rea_cue_run2_DMCC8033964,3E,o,v,InCon,n,2,1,yes,stay,red,green,green,Inc,2000,1,627,2,2,572858,577364,577991,37751,38,535.107,539.613,540.24,28.409,274.405,520.414,246.02,492.016,738.026,InConInc
2,rea,cue,2,DMCC8033964,rea_cue_run2_DMCC8033964,6I,e,v,Con,n,1,1,,stay,red,black,black,NoInc,3200,1,572,1,1,583657,588163,588735,37751,39,545.906,550.412,550.984,28.409,274.405,520.414,246.02,492.016,738.026,ConNoInc
2,rea,cue,2,DMCC8033964,rea_cue_run2_DMCC8033964,2A,e,v,Con,n,1,1,,stay,red,black,black,NoInc,2000,1,505,1,1,595656,600162,600667,37751,40,557.905,562.411,562.916,28.409,274.405,520.414,246.02,492.016,738.026,ConNoInc
2,rea,cue,2,DMCC8033964,rea_cue_run2_DMCC8033964,5H,o,c,Con,n,2,2,,stay,red,black,black,NoInc,4400,1,564,2,2,606455,610962,611526,37751,41,568.704,573.211,573.775,28.409,274.405,520.414,246.02,492.016,738.026,ConNoInc
2,rea,cue,2,DMCC8033964,rea_cue_run2_DMCC8033964,2B,e,c,InCon,l,1,2,,switch,red,black,black,NoInc,3200,1,692,2,2,619668,624161,624853,37751,42,581.917,586.41,587.102,28.409,274.405,520.414,246.02,492.016,738.026,InConNoInc
2,rea,cue,2,DMCC8033964,rea_cue_run2_DMCC8033964,A1,o,v,InCon,l,2,1,,stay,red,black,black,NoInc,4400,0,636,2,1,631667,636160,636796,37751,43,593.916,598.409,599.045,28.409,274.405,520.414,246.02,492.016,738.026,InConNoInc
2,rea,cue,2,DMCC8033964,rea_cue_run2_DMCC8033964,E3,o,v,InCon,l,2,1,yes,stay,red,green,green,Inc,2000,1,654,1,1,644866,649359,650013,37751,44,607.115,611.608,612.262,28.409,274.405,520.414,246.02,492.016,738.026,InConInc
2,rea,cue,2,DMCC8033964,rea_cue_run2_DMCC8033964,D4,e,c,InCon,l,1,2,yes,stay,red,green,green,Inc,4400,1,843,2,2,655665,660158,661001,37751,45,617.914,622.407,623.25,28.409,274.405,520.414,246.02,492.016,738.026,InConInc
2,rea,cue,2,DMCC8033964,rea_cue_run2_DMCC8033964,1B,o,c,Con,l,2,2,,stay,red,black,black,NoInc,2000,1,669,2,2,668864,673357,674026,37751,46,631.113,635.606,636.275,28.409,274.405,520.414,246.02,492.016,738.026,ConNoInc
2,rea,cue,2,DMCC8033964,rea_cue_run2_DMCC8033964,A2,e,v,Con,l,1,1,,stay,red,black,black,NoInc,4400,1,645,1,1,679663,684156,684801,37751,47,641.912,646.405,647.05,28.409,274.405,520.414,246.02,492.016,738.026,ConNoInc
2,rea,cue,2,DMCC8033964,rea_cue_run2_DMCC8033964,B1,o,c,Con,n,2,2,,switch,red,black,black,NoInc,2000,1,629,2,2,692863,697356,697985,37751,48,655.112,659.605,660.234,28.409,274.405,520.414,246.02,492.016,738.026,ConNoInc
2,rea,cue,2,DMCC8033964,rea_cue_run2_DMCC8033964,4D,e,c,InCon,n,1,2,yes,stay,red,green,green,Inc,4400,1,625,1,1,703662,708155,708780,37751,49,665.911,670.404,671.029,28.409,274.405,520.414,246.02,492.016,738.026,InConInc
2,rea,cue,2,DMCC8033964,rea_cue_run2_DMCC8033964,A2,e,v,Con,n,1,1,,stay,red,black,black,NoInc,2000,1,633,1,1,716861,721367,722000,37751,50,679.11,683.616,684.249,28.409,274.405,520.414,246.02,492.016,738.026,ConNoInc
2,rea,cue,2,DMCC8033964,rea_cue_run2_DMCC8033964,4D,e,c,InCon,l,1,2,yes,switch,red,green,green,Inc,3200,1,677,2,2,727660,732166,732843,37751,51,689.909,694.415,695.092,28.409,274.405,520.414,246.02,492.016,738.026,InConInc
2,rea,cue,2,DMCC8033964,rea_cue_run2_DMCC8033964,B1,o,c,Con,l,2,2,,stay,red,black,black,NoInc,4400,1,810,2,2,739659,744166,744976,37751,52,701.908,706.415,707.225,28.409,274.405,520.414,246.02,492.016,738.026,ConNoInc
2,rea,cue,2,DMCC8033964,rea_cue_run2_DMCC8033964,H5,o,c,Con,l,2,2,,stay,red,black,black,NoInc,3200,1,718,2,2,752858,757365,758083,37751,53,715.107,719.614,720.332,28.409,274.405,520.414,246.02,492.016,738.026,ConNoInc
2,rea,cue,2,DMCC8033964,rea_cue_run2_DMCC8033964,1B,o,c,Con,n,2,2,,switch,red,black,black,NoInc,3200,1,625,2,2,764857,769364,769989,37751,54,727.106,731.613,732.238,28.409,274.405,520.414,246.02,492.016,738.026,ConNoInc
3,bas,cue,1,DMCC8033964,bas_cue_run1_DMCC8033964,4D,e,c,InCon,n,1,2,,,red,black,green,Inc,2000,1,575,1,1,139844,144338,144913,108713,1,31.131,35.625,36.2,28.438,274.438,520.425,246.038,492.038,738.038,InConInc
3,bas,cue,1,DMCC8033964,bas_cue_run1_DMCC8033964,2A,e,v,Con,n,1,1,,stay,red,black,black,NoInc,2000,1,563,1,1,150631,155138,155701,108713,2,41.918,46.425,46.988,28.438,274.438,520.425,246.038,492.038,738.038,ConNoInc
3,bas,cue,1,DMCC8033964,bas_cue_run1_DMCC8033964,1B,o,c,Con,l,2,2,,switch,red,black,black,NoInc,4400,1,750,2,2,161444,165951,166701,108713,3,52.731,57.238,57.988,28.438,274.438,520.425,246.038,492.038,738.038,ConNoInc
3,bas,cue,1,DMCC8033964,bas_cue_run1_DMCC8033964,1A,o,v,InCon,l,2,1,,stay,red,black,black,NoInc,4400,1,645,1,1,174644,179151,179796,108713,4,65.931,70.438,71.083,28.438,274.438,520.425,246.038,492.038,738.038,InConNoInc
3,bas,cue,1,DMCC8033964,bas_cue_run1_DMCC8033964,B1,o,c,Con,n,2,2,,switch,red,black,black,NoInc,3200,1,637,2,2,187831,192338,192975,108713,5,79.118,83.625,84.262,28.438,274.438,520.425,246.038,492.038,738.038,ConNoInc
3,bas,cue,1,DMCC8033964,bas_cue_run1_DMCC8033964,B2,e,c,InCon,n,1,2,,stay,red,black,black,NoInc,4400,1,642,1,1,199844,204351,204993,108713,6,91.131,95.638,96.28,28.438,274.438,520.425,246.038,492.038,738.038,InConNoInc
3,bas,cue,1,DMCC8033964,bas_cue_run1_DMCC8033964,A2,e,v,Con,n,1,1,,stay,red,black,black,NoInc,2000,1,588,1,1,213044,217551,218139,108713,7,104.331,108.838,109.426,28.438,274.438,520.425,246.038,492.038,738.038,ConNoInc
3,bas,cue,1,DMCC8033964,bas_cue_run1_DMCC8033964,H5,o,c,Con,l,2,2,,switch,red,black,black,NoInc,3200,1,662,2,2,223831,228338,229000,108713,8,115.118,119.625,120.287,28.438,274.438,520.425,246.038,492.038,738.038,ConNoInc
3,bas,cue,1,DMCC8033964,bas_cue_run1_DMCC8033964,D4,e,c,InCon,l,1,2,,stay,red,black,green,Inc,3200,1,610,2,2,235831,240351,240961,108713,9,127.118,131.638,132.248,28.438,274.438,520.425,246.038,492.038,738.038,InConInc
3,bas,cue,1,DMCC8033964,bas_cue_run1_DMCC8033964,5H,o,c,Con,l,2,2,,stay,red,black,black,NoInc,4400,1,600,2,2,247844,252351,252951,108713,10,139.131,143.638,144.238,28.438,274.438,520.425,246.038,492.038,738.038,ConNoInc
3,bas,cue,1,DMCC8033964,bas_cue_run1_DMCC8033964,6I,e,v,Con,n,1,1,,switch,red,black,green,Inc,4400,1,861,1,1,261044,265538,266399,108713,11,152.331,156.825,157.686,28.438,274.438,520.425,246.038,492.038,738.038,ConInc
3,bas,cue,1,DMCC8033964,bas_cue_run1_DMCC8033964,A2,e,v,Con,l,1,1,,switch,red,black,black,NoInc,3200,1,554,1,1,274231,278751,279305,108713,12,165.518,170.038,170.592,28.438,274.438,520.425,246.038,492.038,738.038,ConNoInc
3,bas,cue,1,DMCC8033964,bas_cue_run1_DMCC8033964,E3,o,v,InCon,l,2,1,,stay,red,black,green,Inc,4400,1,655,1,1,286244,290751,291406,108713,13,177.531,182.038,182.693,28.438,274.438,520.425,246.038,492.038,738.038,InConInc
3,bas,cue,1,DMCC8033964,bas_cue_run1_DMCC8033964,B1,o,c,Con,l,2,2,,stay,red,black,black,NoInc,2000,1,737,2,2,299444,303938,304675,108713,14,190.731,195.225,195.962,28.438,274.438,520.425,246.038,492.038,738.038,ConNoInc
3,bas,cue,1,DMCC8033964,bas_cue_run1_DMCC8033964,I6,e,v,Con,l,1,1,,stay,red,black,green,Inc,2000,1,695,1,1,310231,314738,315433,108713,15,201.518,206.025,206.72,28.438,274.438,520.425,246.038,492.038,738.038,ConInc
3,bas,cue,1,DMCC8033964,bas_cue_run1_DMCC8033964,1B,o,c,Con,n,2,2,,switch,red,black,black,NoInc,3200,1,798,2,2,321044,325551,326349,108713,16,212.331,216.838,217.636,28.438,274.438,520.425,246.038,492.038,738.038,ConNoInc
3,bas,cue,1,DMCC8033964,bas_cue_run1_DMCC8033964,I6,e,v,Con,n,1,1,,stay,red,black,black,NoInc,2000,1,576,1,1,333044,337551,338127,108713,17,224.331,228.838,229.414,28.438,274.438,520.425,246.038,492.038,738.038,ConNoInc
3,bas,cue,1,DMCC8033964,bas_cue_run1_DMCC8033964,D4,e,c,InCon,n,1,2,,stay,red,black,green,Inc,3200,1,745,1,1,343844,348338,349083,108713,18,235.131,239.625,240.37,28.438,274.438,520.425,246.038,492.038,738.038,InConInc
3,bas,cue,1,DMCC8033964,bas_cue_run1_DMCC8033964,I6,e,v,Con,l,1,1,,,red,black,black,NoInc,3200,1,728,1,1,385831,390338,391066,108713,19,277.118,281.625,282.353,28.438,274.438,520.425,246.038,492.038,738.038,ConNoInc
3,bas,cue,1,DMCC8033964,bas_cue_run1_DMCC8033964,3E,o,v,InCon,l,2,1,,stay,red,black,green,Inc,4400,1,656,1,1,397831,402351,403007,108713,20,289.118,293.638,294.294,28.438,274.438,520.425,246.038,492.038,738.038,InConInc
3,bas,cue,1,DMCC8033964,bas_cue_run1_DMCC8033964,E3,o,v,InCon,n,2,1,,switch,red,black,green,Inc,3200,1,610,2,2,411044,415551,416161,108713,21,302.331,306.838,307.448,28.438,274.438,520.425,246.038,492.038,738.038,InConInc
3,bas,cue,1,DMCC8033964,bas_cue_run1_DMCC8033964,A2,e,v,Con,n,1,1,,stay,red,black,black,NoInc,2000,1,582,1,1,423044,427538,428120,108713,22,314.331,318.825,319.407,28.438,274.438,520.425,246.038,492.038,738.038,ConNoInc
3,bas,cue,1,DMCC8033964,bas_cue_run1_DMCC8033964,6I,e,v,Con,n,1,1,,stay,red,black,black,NoInc,4400,1,686,1,1,433831,438338,439024,108713,23,325.118,329.625,330.311,28.438,274.438,520.425,246.038,492.038,738.038,ConNoInc
3,bas,cue,1,DMCC8033964,bas_cue_run1_DMCC8033964,2A,e,v,Con,l,1,1,,switch,red,black,black,NoInc,4400,1,650,1,1,447044,451551,452201,108713,24,338.331,342.838,343.488,28.438,274.438,520.425,246.038,492.038,738.038,ConNoInc
3,bas,cue,1,DMCC8033964,bas_cue_run1_DMCC8033964,A1,o,v,InCon,n,2,1,,switch,red,black,black,NoInc,2000,1,1034,2,2,460244,464751,465785,108713,25,351.531,356.038,357.072,28.438,274.438,520.425,246.038,492.038,738.038,InConNoInc
3,bas,cue,1,DMCC8033964,bas_cue_run1_DMCC8033964,5H,o,c,Con,n,2,2,,stay,red,black,green,Inc,2000,1,698,2,2,471031,475538,476236,108713,26,362.318,366.825,367.523,28.438,274.438,520.425,246.038,492.038,738.038,ConInc
3,bas,cue,1,DMCC8033964,bas_cue_run1_DMCC8033964,3E,o,v,InCon,n,2,1,,stay,red,black,green,Inc,3200,1,678,2,2,481844,486351,487029,108713,27,373.131,377.638,378.316,28.438,274.438,520.425,246.038,492.038,738.038,InConInc
3,bas,cue,1,DMCC8033964,bas_cue_run1_DMCC8033964,2B,e,c,InCon,l,1,2,,switch,red,black,black,NoInc,4400,1,657,2,2,493844,498351,499008,108713,28,385.131,389.638,390.295,28.438,274.438,520.425,246.038,492.038,738.038,InConNoInc
3,bas,cue,1,DMCC8033964,bas_cue_run1_DMCC8033964,1B,o,c,Con,n,2,2,,switch,red,black,black,NoInc,4400,1,645,2,2,507031,511537,512182,108713,29,398.318,402.824,403.469,28.438,274.438,520.425,246.038,492.038,738.038,ConNoInc
3,bas,cue,1,DMCC8033964,bas_cue_run1_DMCC8033964,B1,o,c,Con,l,2,2,,switch,red,black,black,NoInc,4400,1,626,2,2,520231,524751,525377,108713,30,411.518,416.038,416.664,28.438,274.438,520.425,246.038,492.038,738.038,ConNoInc
3,bas,cue,1,DMCC8033964,bas_cue_run1_DMCC8033964,D4,e,c,InCon,l,1,2,,stay,red,black,green,Inc,3200,1,603,2,2,533444,537951,538554,108713,31,424.731,429.238,429.841,28.438,274.438,520.425,246.038,492.038,738.038,InConInc
3,bas,cue,1,DMCC8033964,bas_cue_run1_DMCC8033964,2A,e,v,Con,n,1,1,,switch,red,black,black,NoInc,3200,1,561,1,1,545444,549937,550498,108713,32,436.731,441.224,441.785,28.438,274.438,520.425,246.038,492.038,738.038,ConNoInc
3,bas,cue,1,DMCC8033964,bas_cue_run1_DMCC8033964,E3,o,v,InCon,n,2,1,,stay,red,black,green,Inc,3200,1,612,2,2,557431,561951,562563,108713,33,448.718,453.238,453.85,28.438,274.438,520.425,246.038,492.038,738.038,InConInc
3,bas,cue,1,DMCC8033964,bas_cue_run1_DMCC8033964,2A,e,v,Con,l,1,1,,switch,red,black,black,NoInc,2000,1,709,1,1,569444,573951,574660,108713,34,460.731,465.238,465.947,28.438,274.438,520.425,246.038,492.038,738.038,ConNoInc
3,bas,cue,1,DMCC8033964,bas_cue_run1_DMCC8033964,5H,o,c,Con,l,2,2,,stay,red,black,black,NoInc,2000,1,506,2,2,580244,584751,585257,108713,35,471.531,476.038,476.544,28.438,274.438,520.425,246.038,492.038,738.038,ConNoInc
3,bas,cue,1,DMCC8033964,bas_cue_run1_DMCC8033964,1B,o,c,Con,l,2,2,,stay,red,black,black,NoInc,2000,1,574,2,2,591031,595537,596111,108713,36,482.318,486.824,487.398,28.438,274.438,520.425,246.038,492.038,738.038,ConNoInc
3,bas,cue,1,DMCC8033964,bas_cue_run1_DMCC8033964,1B,o,c,Con,l,2,2,,,red,black,black,NoInc,3200,1,711,2,2,631831,636337,637048,108713,37,523.118,527.624,528.335,28.438,274.438,520.425,246.038,492.038,738.038,ConNoInc
3,bas,cue,1,DMCC8033964,bas_cue_run1_DMCC8033964,3E,o,v,InCon,l,2,1,,stay,red,black,green,Inc,2000,1,623,1,1,643844,648351,648974,108713,38,535.131,539.638,540.261,28.438,274.438,520.425,246.038,492.038,738.038,InConInc
3,bas,cue,1,DMCC8033964,bas_cue_run1_DMCC8033964,4D,e,c,InCon,n,1,2,,switch,red,black,green,Inc,3200,1,601,1,1,654644,659151,659752,108713,39,545.931,550.438,551.039,28.438,274.438,520.425,246.038,492.038,738.038,InConInc
3,bas,cue,1,DMCC8033964,bas_cue_run1_DMCC8033964,B1,o,c,Con,n,2,2,,stay,red,black,black,NoInc,4400,1,703,2,2,666644,671137,671840,108713,40,557.931,562.424,563.127,28.438,274.438,520.425,246.038,492.038,738.038,ConNoInc
3,bas,cue,1,DMCC8033964,bas_cue_run1_DMCC8033964,A2,e,v,Con,l,1,1,,switch,red,black,black,NoInc,2000,1,931,1,1,679831,684351,685282,108713,41,571.118,575.638,576.569,28.438,274.438,520.425,246.038,492.038,738.038,ConNoInc
3,bas,cue,1,DMCC8033964,bas_cue_run1_DMCC8033964,2A,e,v,Con,n,1,1,,switch,red,black,black,NoInc,4400,1,649,1,1,690644,695151,695800,108713,42,581.931,586.438,587.087,28.438,274.438,520.425,246.038,492.038,738.038,ConNoInc
3,bas,cue,1,DMCC8033964,bas_cue_run1_DMCC8033964,3E,o,v,InCon,n,2,1,,stay,red,black,green,Inc,4400,1,616,2,2,703844,708351,708967,108713,43,595.131,599.638,600.254,28.438,274.438,520.425,246.038,492.038,738.038,InConInc
3,bas,cue,1,DMCC8033964,bas_cue_run1_DMCC8033964,6I,e,v,Con,n,1,1,,stay,red,black,black,NoInc,2000,1,517,1,1,717031,721537,722054,108713,44,608.318,612.824,613.341,28.438,274.438,520.425,246.038,492.038,738.038,ConNoInc
3,bas,cue,1,DMCC8033964,bas_cue_run1_DMCC8033964,E3,o,v,InCon,l,2,1,,switch,red,black,green,Inc,3200,1,650,1,1,727844,732351,733001,108713,45,619.131,623.638,624.288,28.438,274.438,520.425,246.038,492.038,738.038,InConInc
3,bas,cue,1,DMCC8033964,bas_cue_run1_DMCC8033964,6I,e,v,Con,l,1,1,,stay,red,black,black,NoInc,3200,1,673,1,1,739844,744351,745024,108713,46,631.131,635.638,636.311,28.438,274.438,520.425,246.038,492.038,738.038,ConNoInc
3,bas,cue,1,DMCC8033964,bas_cue_run1_DMCC8033964,1A,o,v,InCon,n,2,1,,switch,red,black,black,NoInc,2000,1,693,2,2,751831,756337,757030,108713,47,643.118,647.624,648.317,28.438,274.438,520.425,246.038,492.038,738.038,InConNoInc
3,bas,cue,1,DMCC8033964,bas_cue_run1_DMCC8033964,B1,o,c,Con,l,2,2,,switch,red,black,black,NoInc,3200,1,742,2,2,762631,767151,767893,108713,48,653.918,658.438,659.18,28.438,274.438,520.425,246.038,492.038,738.038,ConNoInc
3,bas,cue,1,DMCC8033964,bas_cue_run1_DMCC8033964,H5,o,c,Con,l,2,2,,stay,red,black,green,Inc,4400,1,760,2,2,774644,779151,779911,108713,49,665.931,670.438,671.198,28.438,274.438,520.425,246.038,492.038,738.038,ConInc
3,bas,cue,1,DMCC8033964,bas_cue_run1_DMCC8033964,A2,e,v,Con,n,1,1,,switch,red,black,black,NoInc,3200,1,554,1,1,787844,792337,792891,108713,50,679.131,683.624,684.178,28.438,274.438,520.425,246.038,492.038,738.038,ConNoInc
3,bas,cue,1,DMCC8033964,bas_cue_run1_DMCC8033964,1B,o,c,Con,n,2,2,,stay,red,black,black,NoInc,4400,1,556,2,2,799831,804351,804907,108713,51,691.118,695.638,696.194,28.438,274.438,520.425,246.038,492.038,738.038,ConNoInc
3,bas,cue,1,DMCC8033964,bas_cue_run1_DMCC8033964,H5,o,c,Con,n,2,2,,stay,red,black,black,NoInc,2000,1,627,2,2,813044,817551,818178,108713,52,704.331,708.838,709.465,28.438,274.438,520.425,246.038,492.038,738.038,ConNoInc
3,bas,cue,1,DMCC8033964,bas_cue_run1_DMCC8033964,4D,e,c,InCon,l,1,2,,switch,red,black,green,Inc,2000,1,686,2,2,823844,828351,829037,108713,53,715.131,719.638,720.324,28.438,274.438,520.425,246.038,492.038,738.038,InConInc
3,bas,cue,1,DMCC8033964,bas_cue_run1_DMCC8033964,2A,e,v,Con,l,1,1,,stay,red,black,black,NoInc,4400,1,806,1,1,834631,839137,839943,108713,54,725.918,730.424,731.23,28.438,274.438,520.425,246.038,492.038,738.038,ConNoInc
3,bas,cue,2,DMCC8033964,bas_cue_run2_DMCC8033964,1B,o,c,Con,n,2,2,,,red,black,black,NoInc,4400,1,570,2,2,80662,85155,85725,49521,1,31.141,35.634,36.204,28.434,274.434,520.434,246.034,492.034,738.034,ConNoInc
3,bas,cue,2,DMCC8033964,bas_cue_run2_DMCC8033964,H5,o,c,Con,l,2,2,,switch,red,black,black,NoInc,3200,1,559,2,2,93848,98342,98901,49521,2,44.327,48.821,49.38,28.434,274.434,520.434,246.034,492.034,738.034,ConNoInc
3,bas,cue,2,DMCC8033964,bas_cue_run2_DMCC8033964,1B,o,c,Con,l,2,2,,stay,red,black,black,NoInc,4400,1,550,2,2,105862,110355,110905,49521,3,56.341,60.834,61.384,28.434,274.434,520.434,246.034,492.034,738.034,ConNoInc
3,bas,cue,2,DMCC8033964,bas_cue_run2_DMCC8033964,E3,o,v,InCon,l,2,1,,stay,red,black,green,Inc,4400,1,619,1,1,119062,123555,124174,49521,4,69.541,74.034,74.653,28.434,274.434,520.434,246.034,492.034,738.034,InConInc
3,bas,cue,2,DMCC8033964,bas_cue_run2_DMCC8033964,2A,e,v,Con,n,1,1,,switch,red,black,black,NoInc,2000,1,607,1,1,132248,136742,137349,49521,5,82.727,87.221,87.828,28.434,274.434,520.434,246.034,492.034,738.034,ConNoInc
3,bas,cue,2,DMCC8033964,bas_cue_run2_DMCC8033964,A2,e,v,Con,l,1,1,,switch,red,black,black,NoInc,2000,1,551,1,1,143048,147555,148106,49521,6,93.527,98.034,98.585,28.434,274.434,520.434,246.034,492.034,738.034,ConNoInc
3,bas,cue,2,DMCC8033964,bas_cue_run2_DMCC8033964,B1,o,c,Con,n,2,2,,switch,red,black,black,NoInc,3200,1,592,2,2,153862,158355,158947,49521,7,104.341,108.834,109.426,28.434,274.434,520.434,246.034,492.034,738.034,ConNoInc
3,bas,cue,2,DMCC8033964,bas_cue_run2_DMCC8033964,A2,e,v,Con,n,1,1,,stay,red,black,black,NoInc,2000,1,559,1,1,165862,170355,170914,49521,8,116.341,120.834,121.393,28.434,274.434,520.434,246.034,492.034,738.034,ConNoInc
3,bas,cue,2,DMCC8033964,bas_cue_run2_DMCC8033964,E3,o,v,InCon,n,2,1,,stay,red,black,green,Inc,3200,1,538,2,2,176648,181142,181680,49521,9,127.127,131.621,132.159,28.434,274.434,520.434,246.034,492.034,738.034,InConInc
3,bas,cue,2,DMCC8033964,bas_cue_run2_DMCC8033964,D4,e,c,InCon,n,1,2,,stay,red,black,green,Inc,4400,1,610,1,1,188662,193155,193765,49521,10,139.141,143.634,144.244,28.434,274.434,520.434,246.034,492.034,738.034,InConInc
3,bas,cue,2,DMCC8033964,bas_cue_run2_DMCC8033964,B2,e,c,InCon,l,1,2,,switch,red,black,black,NoInc,4400,1,598,2,2,201862,206355,206953,49521,11,152.341,156.834,157.432,28.434,274.434,520.434,246.034,492.034,738.034,InConNoInc
3,bas,cue,2,DMCC8033964,bas_cue_run2_DMCC8033964,4D,e,c,InCon,l,1,2,,stay,red,black,green,Inc,2000,1,651,2,2,215048,219542,220193,49521,12,165.527,170.021,170.672,28.434,274.434,520.434,246.034,492.034,738.034,InConInc
3,bas,cue,2,DMCC8033964,bas_cue_run2_DMCC8033964,2A,e,v,Con,l,1,1,,stay,red,black,black,NoInc,4400,1,753,1,1,225848,230355,231108,49521,13,176.327,180.834,181.587,28.434,274.434,520.434,246.034,492.034,738.034,ConNoInc
3,bas,cue,2,DMCC8033964,bas_cue_run2_DMCC8033964,3E,o,v,InCon,n,2,1,,switch,red,black,green,Inc,3200,1,598,2,2,239062,243555,244153,49521,14,189.541,194.034,194.632,28.434,274.434,520.434,246.034,492.034,738.034,InConInc
3,bas,cue,2,DMCC8033964,bas_cue_run2_DMCC8033964,5H,o,c,Con,n,2,2,,stay,red,black,black,NoInc,2000,1,529,2,2,251062,255542,256071,49521,15,201.541,206.021,206.55,28.434,274.434,520.434,246.034,492.034,738.034,ConNoInc
3,bas,cue,2,DMCC8033964,bas_cue_run2_DMCC8033964,6I,e,v,Con,l,1,1,,switch,red,black,green,Inc,3200,1,816,1,1,261848,266342,267158,49521,16,212.327,216.821,217.637,28.434,274.434,520.434,246.034,492.034,738.034,ConInc
3,bas,cue,2,DMCC8033964,bas_cue_run2_DMCC8033964,B1,o,c,Con,l,2,2,,stay,red,black,black,NoInc,2000,1,804,2,2,273862,278355,279159,49521,17,224.341,228.834,229.638,28.434,274.434,520.434,246.034,492.034,738.034,ConNoInc
3,bas,cue,2,DMCC8033964,bas_cue_run2_DMCC8033964,6I,e,v,Con,n,1,1,,switch,red,black,black,NoInc,3200,1,613,1,1,284662,289155,289768,49521,18,235.141,239.634,240.247,28.434,274.434,520.434,246.034,492.034,738.034,ConNoInc
3,bas,cue,2,DMCC8033964,bas_cue_run2_DMCC8033964,2B,e,c,InCon,n,1,2,,,red,black,black,NoInc,2000,1,565,1,1,326662,331155,331720,49521,19,277.141,281.634,282.199,28.434,274.434,520.434,246.034,492.034,738.034,InConNoInc
3,bas,cue,2,DMCC8033964,bas_cue_run2_DMCC8033964,H5,o,c,Con,l,2,2,,switch,red,black,black,NoInc,3200,1,602,2,2,337448,341942,342544,49521,20,287.927,292.421,293.023,28.434,274.434,520.434,246.034,492.034,738.034,ConNoInc
3,bas,cue,2,DMCC8033964,bas_cue_run2_DMCC8033964,I6,e,v,Con,n,1,1,,switch,red,black,green,Inc,4400,1,714,1,1,349462,353955,354669,49521,21,299.941,304.434,305.148,28.434,274.434,520.434,246.034,492.034,738.034,ConInc
3,bas,cue,2,DMCC8033964,bas_cue_run2_DMCC8033964,2A,e,v,Con,n,1,1,,stay,red,black,black,NoInc,4400,1,671,1,1,362662,367155,367826,49521,22,313.141,317.634,318.305,28.434,274.434,520.434,246.034,492.034,738.034,ConNoInc
3,bas,cue,2,DMCC8033964,bas_cue_run2_DMCC8033964,B1,o,c,Con,n,2,2,,stay,red,black,black,NoInc,3200,1,659,2,2,375848,380342,381001,49521,23,326.327,330.821,331.48,28.434,274.434,520.434,246.034,492.034,738.034,ConNoInc
3,bas,cue,2,DMCC8033964,bas_cue_run2_DMCC8033964,A2,e,v,Con,n,1,1,,stay,red,black,black,NoInc,3200,1,643,1,1,387848,392355,392998,49521,24,338.327,342.834,343.477,28.434,274.434,520.434,246.034,492.034,738.034,ConNoInc
3,bas,cue,2,DMCC8033964,bas_cue_run2_DMCC8033964,D4,e,c,InCon,l,1,2,,switch,red,black,green,Inc,4400,1,677,2,2,399862,404355,405032,49521,25,350.341,354.834,355.511,28.434,274.434,520.434,246.034,492.034,738.034,InConInc
3,bas,cue,2,DMCC8033964,bas_cue_run2_DMCC8033964,D4,e,c,InCon,n,1,2,,switch,red,black,green,Inc,2000,1,578,1,1,413062,417542,418120,49521,26,363.541,368.021,368.599,28.434,274.434,520.434,246.034,492.034,738.034,InConInc
3,bas,cue,2,DMCC8033964,bas_cue_run2_DMCC8033964,1A,o,v,InCon,n,2,1,,stay,red,black,black,NoInc,2000,1,631,2,2,423848,428342,428973,49521,27,374.327,378.821,379.452,28.434,274.434,520.434,246.034,492.034,738.034,InConNoInc
3,bas,cue,2,DMCC8033964,bas_cue_run2_DMCC8033964,4D,e,c,InCon,n,1,2,,stay,red,black,green,Inc,2000,1,653,1,1,434662,439155,439808,49521,28,385.141,389.634,390.287,28.434,274.434,520.434,246.034,492.034,738.034,InConInc
3,bas,cue,2,DMCC8033964,bas_cue_run2_DMCC8033964,2A,e,v,Con,l,1,1,,switch,red,black,black,NoInc,2000,1,623,1,1,445462,449955,450578,49521,29,395.941,400.434,401.057,28.434,274.434,520.434,246.034,492.034,738.034,ConNoInc
3,bas,cue,2,DMCC8033964,bas_cue_run2_DMCC8033964,1B,o,c,Con,l,2,2,,stay,red,black,black,NoInc,4400,1,706,2,2,456248,460742,461448,49521,30,406.727,411.221,411.927,28.434,274.434,520.434,246.034,492.034,738.034,ConNoInc
3,bas,cue,2,DMCC8033964,bas_cue_run2_DMCC8033964,5H,o,c,Con,l,2,2,,stay,red,black,green,Inc,3200,1,986,2,2,469462,473955,474941,49521,31,419.941,424.434,425.42,28.434,274.434,520.434,246.034,492.034,738.034,ConInc
3,bas,cue,2,DMCC8033964,bas_cue_run2_DMCC8033964,I6,e,v,Con,n,1,1,,switch,red,black,black,NoInc,4400,1,750,1,1,481462,485955,486705,49521,32,431.941,436.434,437.184,28.434,274.434,520.434,246.034,492.034,738.034,ConNoInc
3,bas,cue,2,DMCC8033964,bas_cue_run2_DMCC8033964,I6,e,v,Con,l,1,1,,switch,red,black,black,NoInc,3200,1,982,1,1,494662,499142,500124,49521,33,445.141,449.621,450.603,28.434,274.434,520.434,246.034,492.034,738.034,ConNoInc
3,bas,cue,2,DMCC8033964,bas_cue_run2_DMCC8033964,3E,o,v,InCon,l,2,1,,stay,red,black,green,Inc,2000,1,668,1,1,506648,511155,511823,49521,34,457.127,461.634,462.302,28.434,274.434,520.434,246.034,492.034,738.034,InConInc
3,bas,cue,2,DMCC8033964,bas_cue_run2_DMCC8033964,B1,o,c,Con,l,2,2,,stay,red,black,black,NoInc,3200,1,630,2,2,517462,521955,522585,49521,35,467.941,472.434,473.064,28.434,274.434,520.434,246.034,492.034,738.034,ConNoInc
3,bas,cue,2,DMCC8033964,bas_cue_run2_DMCC8033964,A2,e,v,Con,l,1,1,,stay,red,black,black,NoInc,4400,1,584,1,1,529462,533955,534539,49521,36,479.941,484.434,485.018,28.434,274.434,520.434,246.034,492.034,738.034,ConNoInc
3,bas,cue,2,DMCC8033964,bas_cue_run2_DMCC8033964,H5,o,c,Con,l,2,2,,,red,black,black,NoInc,2000,1,611,2,2,572662,577142,577753,49521,37,523.141,527.621,528.232,28.434,274.434,520.434,246.034,492.034,738.034,ConNoInc
3,bas,cue,2,DMCC8033964,bas_cue_run2_DMCC8033964,B1,o,c,Con,n,2,2,,switch,red,black,black,NoInc,3200,1,605,2,2,583448,587942,588547,49521,38,533.927,538.421,539.026,28.434,274.434,520.434,246.034,492.034,738.034,ConNoInc
3,bas,cue,2,DMCC8033964,bas_cue_run2_DMCC8033964,4D,e,c,InCon,n,1,2,,stay,red,black,green,Inc,4400,1,605,1,1,595462,599955,600560,49521,39,545.941,550.434,551.039,28.434,274.434,520.434,246.034,492.034,738.034,InConInc
3,bas,cue,2,DMCC8033964,bas_cue_run2_DMCC8033964,1B,o,c,Con,l,2,2,,switch,red,black,black,NoInc,2000,1,575,2,2,608662,613155,613730,49521,40,559.141,563.634,564.209,28.434,274.434,520.434,246.034,492.034,738.034,ConNoInc
3,bas,cue,2,DMCC8033964,bas_cue_run2_DMCC8033964,A2,e,v,Con,l,1,1,,stay,red,black,black,NoInc,4400,1,702,1,1,619448,623942,624644,49521,41,569.927,574.421,575.123,28.434,274.434,520.434,246.034,492.034,738.034,ConNoInc
3,bas,cue,2,DMCC8033964,bas_cue_run2_DMCC8033964,2B,e,c,InCon,l,1,2,,stay,red,black,black,NoInc,3200,1,669,2,2,632662,637155,637824,49521,42,583.141,587.634,588.303,28.434,274.434,520.434,246.034,492.034,738.034,InConNoInc
3,bas,cue,2,DMCC8033964,bas_cue_run2_DMCC8033964,E3,o,v,InCon,l,2,1,,stay,red,black,green,Inc,4400,1,628,1,1,644662,649155,649783,49521,43,595.141,599.634,600.262,28.434,274.434,520.434,246.034,492.034,738.034,InConInc
3,bas,cue,2,DMCC8033964,bas_cue_run2_DMCC8033964,2A,e,v,Con,n,1,1,,switch,red,black,black,NoInc,3200,1,580,1,1,657862,662342,662922,49521,44,608.341,612.821,613.401,28.434,274.434,520.434,246.034,492.034,738.034,ConNoInc
3,bas,cue,2,DMCC8033964,bas_cue_run2_DMCC8033964,4D,e,c,InCon,l,1,2,,switch,red,black,green,Inc,2000,1,682,2,2,669848,674355,675037,49521,45,620.327,624.834,625.516,28.434,274.434,520.434,246.034,492.034,738.034,InConInc
3,bas,cue,2,DMCC8033964,bas_cue_run2_DMCC8033964,3E,o,v,InCon,n,2,1,,switch,red,black,green,Inc,4400,1,567,2,2,680662,685155,685722,49521,46,631.141,635.634,636.201,28.434,274.434,520.434,246.034,492.034,738.034,InConInc
3,bas,cue,2,DMCC8033964,bas_cue_run2_DMCC8033964,A1,o,v,InCon,l,2,1,,switch,red,black,black,NoInc,2000,1,619,1,1,693862,698355,698974,49521,47,644.341,648.834,649.453,28.434,274.434,520.434,246.034,492.034,738.034,InConNoInc
3,bas,cue,2,DMCC8033964,bas_cue_run2_DMCC8033964,D4,e,c,InCon,l,1,2,,stay,red,black,green,Inc,3200,1,619,2,2,704648,709142,709761,49521,48,655.127,659.621,660.24,28.434,274.434,520.434,246.034,492.034,738.034,InConInc
3,bas,cue,2,DMCC8033964,bas_cue_run2_DMCC8033964,B1,o,c,Con,l,2,2,,stay,red,black,black,NoInc,2000,1,689,2,2,716662,721155,721844,49521,49,667.141,671.634,672.323,28.434,274.434,520.434,246.034,492.034,738.034,ConNoInc
3,bas,cue,2,DMCC8033964,bas_cue_run2_DMCC8033964,1B,o,c,Con,n,2,2,,switch,red,black,black,NoInc,3200,1,658,2,2,727462,731955,732613,49521,50,677.941,682.434,683.092,28.434,274.434,520.434,246.034,492.034,738.034,ConNoInc
3,bas,cue,2,DMCC8033964,bas_cue_run2_DMCC8033964,5H,o,c,Con,n,2,2,,stay,red,black,black,NoInc,2000,1,529,2,2,739448,743942,744471,49521,51,689.927,694.421,694.95,28.434,274.434,520.434,246.034,492.034,738.034,ConNoInc
3,bas,cue,2,DMCC8033964,bas_cue_run2_DMCC8033964,A2,e,v,Con,n,1,1,,stay,red,black,black,NoInc,4400,1,746,1,1,750248,754755,755501,49521,52,700.727,705.234,705.98,28.434,274.434,520.434,246.034,492.034,738.034,ConNoInc
3,bas,cue,2,DMCC8033964,bas_cue_run2_DMCC8033964,6I,e,v,Con,n,1,1,,stay,red,black,black,NoInc,4400,1,519,1,1,763462,767955,768474,49521,53,713.941,718.434,718.953,28.434,274.434,520.434,246.034,492.034,738.034,ConNoInc
3,bas,cue,2,DMCC8033964,bas_cue_run2_DMCC8033964,H5,o,c,Con,n,2,2,,stay,red,black,green,Inc,3200,1,680,2,2,776662,781142,781822,49521,54,727.141,731.621,732.301,28.434,274.434,520.434,246.034,492.034,738.034,ConInc
3,pro,cue,1,DMCC8033964,pro_cue_run1_DMCC8033964,A2,e,v,Con,n,1,1,,,red,black,black,NoInc,2000,1,752,1,1,170078,174571,175323,138928,1,31.15,35.643,36.395,28.443,274.443,520.443,246.07,492.07,738.069,ConNoInc
3,pro,cue,1,DMCC8033964,pro_cue_run1_DMCC8033964,2A,e,v,Con,n,1,1,,stay,red,black,black,NoInc,2000,1,526,1,1,180891,185384,185910,138928,2,41.963,46.456,46.982,28.443,274.443,520.443,246.07,492.07,738.069,ConNoInc
3,pro,cue,1,DMCC8033964,pro_cue_run1_DMCC8033964,D4,e,c,InCon,l,1,2,too.slow,switch,green,black,green,Inc,4400,1,683,2,2,191691,196184,196867,138928,3,52.763,57.256,57.939,28.443,274.443,520.443,246.07,492.07,738.069,InConInc
3,pro,cue,1,DMCC8033964,pro_cue_run1_DMCC8033964,I6,e,v,Con,n,1,1,,switch,red,black,black,NoInc,3200,1,445,1,1,204878,209371,209816,138928,4,65.95,70.443,70.888,28.443,274.443,520.443,246.07,492.07,738.069,ConNoInc
3,pro,cue,1,DMCC8033964,pro_cue_run1_DMCC8033964,A2,e,v,Con,l,1,1,,switch,red,black,black,NoInc,3200,1,488,1,1,216878,221384,221872,138928,5,77.95,82.456,82.944,28.443,274.443,520.443,246.07,492.07,738.069,ConNoInc
3,pro,cue,1,DMCC8033964,pro_cue_run1_DMCC8033964,1B,o,c,Con,n,2,2,,switch,red,black,black,NoInc,3200,1,552,2,2,228891,233384,233936,138928,6,89.963,94.456,95.008,28.443,274.443,520.443,246.07,492.07,738.069,ConNoInc
3,pro,cue,1,DMCC8033964,pro_cue_run1_DMCC8033964,1B,o,c,Con,l,2,2,,switch,red,black,black,NoInc,4400,1,675,2,2,240891,245371,246046,138928,7,101.963,106.443,107.118,28.443,274.443,520.443,246.07,492.07,738.069,ConNoInc
3,pro,cue,1,DMCC8033964,pro_cue_run1_DMCC8033964,B1,o,c,Con,l,2,2,,stay,red,black,black,NoInc,4400,1,505,2,2,254078,258584,259089,138928,8,115.15,119.656,120.161,28.443,274.443,520.443,246.07,492.07,738.069,ConNoInc
3,pro,cue,1,DMCC8033964,pro_cue_run1_DMCC8033964,D4,e,c,InCon,n,1,2,error,switch,green,black,green,Inc,2000,0,514,2,1,267291,271784,272298,138928,9,128.363,132.856,133.37,28.443,274.443,520.443,246.07,492.07,738.069,InConInc
3,pro,cue,1,DMCC8033964,pro_cue_run1_DMCC8033964,I6,e,v,Con,l,1,1,yes,switch,green,black,green,Inc,3200,1,527,1,1,278091,282584,283111,138928,10,139.163,143.656,144.183,28.443,274.443,520.443,246.07,492.07,738.069,ConInc
3,pro,cue,1,DMCC8033964,pro_cue_run1_DMCC8033964,H5,o,c,Con,l,2,2,,stay,red,black,black,NoInc,4400,1,585,2,2,290078,294571,295156,138928,11,151.15,155.643,156.228,28.443,274.443,520.443,246.07,492.07,738.069,ConNoInc
3,pro,cue,1,DMCC8033964,pro_cue_run1_DMCC8033964,B2,e,c,InCon,n,1,2,,switch,red,black,black,NoInc,3200,1,419,1,1,303291,307784,308203,138928,12,164.363,168.856,169.275,28.443,274.443,520.443,246.07,492.07,738.069,InConNoInc
3,pro,cue,1,DMCC8033964,pro_cue_run1_DMCC8033964,B1,o,c,Con,n,2,2,,stay,red,black,black,NoInc,2000,1,552,2,2,315291,319784,320336,138928,13,176.363,180.856,181.408,28.443,274.443,520.443,246.07,492.07,738.069,ConNoInc
3,pro,cue,1,DMCC8033964,pro_cue_run1_DMCC8033964,1A,o,v,InCon,l,2,1,,switch,red,black,black,NoInc,2000,1,560,1,1,326078,330571,331131,138928,14,187.15,191.643,192.203,28.443,274.443,520.443,246.07,492.07,738.069,InConNoInc
3,pro,cue,1,DMCC8033964,pro_cue_run1_DMCC8033964,5H,o,c,Con,l,2,2,,stay,red,black,black,NoInc,4400,1,607,2,2,336878,341384,341991,138928,15,197.95,202.456,203.063,28.443,274.443,520.443,246.07,492.07,738.069,ConNoInc
3,pro,cue,1,DMCC8033964,pro_cue_run1_DMCC8033964,4D,e,c,InCon,n,1,2,yes,switch,green,black,green,Inc,3200,1,470,1,1,350091,354584,355054,138928,16,211.163,215.656,216.126,28.443,274.443,520.443,246.07,492.07,738.069,InConInc
3,pro,cue,1,DMCC8033964,pro_cue_run1_DMCC8033964,6I,e,v,Con,n,1,1,yes,stay,green,black,green,Inc,2000,1,586,1,1,362091,366571,367157,138928,17,223.163,227.643,228.229,28.443,274.443,520.443,246.07,492.07,738.069,ConInc
3,pro,cue,1,DMCC8033964,pro_cue_run1_DMCC8033964,E3,o,v,InCon,l,2,1,yes,switch,green,black,green,Inc,4400,1,440,1,1,372878,377371,377811,138928,18,233.95,238.443,238.883,28.443,274.443,520.443,246.07,492.07,738.069,InConInc
3,pro,cue,1,DMCC8033964,pro_cue_run1_DMCC8033964,2A,e,v,Con,l,1,1,,,red,black,black,NoInc,4400,1,487,1,1,416078,420584,421071,138928,19,277.15,281.656,282.143,28.443,274.443,520.443,246.07,492.07,738.069,ConNoInc
3,pro,cue,1,DMCC8033964,pro_cue_run1_DMCC8033964,5H,o,c,Con,l,2,2,,stay,red,black,black,NoInc,4400,1,486,2,2,429291,433784,434270,138928,20,290.363,294.856,295.342,28.443,274.443,520.443,246.07,492.07,738.069,ConNoInc
3,pro,cue,1,DMCC8033964,pro_cue_run1_DMCC8033964,2A,e,v,Con,l,1,1,,stay,red,black,black,NoInc,2000,1,488,1,1,442491,446984,447472,138928,21,303.563,308.056,308.544,28.443,274.443,520.443,246.07,492.07,738.069,ConNoInc
