wave,session,task,run,subj,name,trialtype,iti,cue,probe,target.color,location,cue.cresp,cresp,cue.rt,cue.acc,cue.resp,rt,acc,resp,trialacc,time.cue.onset.abs,time.target.onset.abs,time.target.rt.abs,time.cue.rt.abs,time.scan.start,trial.num,time.cue.onset,time.cue.rt,time.target.onset,time.target.rt,time.block1.on,time.block2.on,time.block3.on,time.block1.off,time.block2.off,time.block3.off
1,bas,axc,1,DMCC8760894,bas_axc_run1_DMCC8760894,BY,4000,P,M,white,center,1,1,698,1,1,529,1,1,1,135107,139906,140435,135805,104495,1,30.612,31.31,35.411,35.94,28.412,260.01,491.609,231.625,463.224,694.822
1,bas,axc,1,DMCC8760894,bas_axc_run1_DMCC8760894,Bng,2800,D,4,white,center,1,,437,1,1,0,1,,1,144706,149506,0,145143,104495,2,40.211,40.648,45.011,-104.495,28.412,260.01,491.609,231.625,463.224,694.822
1,bas,axc,1,DMCC8760894,bas_axc_run1_DMCC8760894,AX,1600,A,X,white,center,1,2,478,1,1,389,1,2,1,153105,157905,158294,153583,104495,3,48.61,49.088,53.41,53.799,28.412,260.01,491.609,231.625,463.224,694.822
1,bas,axc,1,DMCC8760894,bas_axc_run1_DMCC8760894,BX,2800,F,X,white,center,1,1,854,1,1,442,1,1,1,160305,165105,165547,161159,104495,4,55.81,56.664,60.61,61.052,28.412,260.01,491.609,231.625,463.224,694.822
1,bas,axc,1,DMCC8760894,bas_axc_run1_DMCC8760894,AX,4000,A,X,white,center,1,2,426,1,1,371,1,2,1,168704,173504,173875,169130,104495,5,64.209,64.635,69.009,69.38,28.412,260.01,491.609,231.625,463.224,694.822
1,bas,axc,1,DMCC8760894,bas_axc_run1_DMCC8760894,AX,4000,A,X,white,center,1,2,368,1,1,397,1,2,1,178304,183104,183501,178672,104495,6,73.809,74.177,78.609,79.006,28.412,260.01,491.609,231.625,463.224,694.822
1,bas,axc,1,DMCC8760894,bas_axc_run1_DMCC8760894,BY,1600,F,M,white,center,1,1,535,1,1,454,1,1,1,187903,192703,193157,188438,104495,7,83.408,83.943,88.208,88.662,28.412,260.01,491.609,231.625,463.224,694.822
1,bas,axc,1,DMCC8760894,bas_axc_run1_DMCC8760894,AX,4000,A,X,white,center,1,2,535,1,1,394,1,2,1,195103,199902,200296,195638,104495,8,90.608,91.143,95.407,95.801,28.412,260.01,491.609,231.625,463.224,694.822
1,bas,axc,1,DMCC8760894,bas_axc_run1_DMCC8760894,AY,2800,A,T,white,center,1,1,505,1,1,565,1,1,1,204702,209502,210067,205207,104495,9,100.207,100.712,105.007,105.572,28.412,260.01,491.609,231.625,463.224,694.822
1,bas,axc,1,DMCC8760894,bas_axc_run1_DMCC8760894,BY,2800,P,H,white,center,1,1,488,1,1,470,1,1,1,213102,217901,218371,213590,104495,10,108.607,109.095,113.406,113.876,28.412,260.01,491.609,231.625,463.224,694.822
1,bas,axc,1,DMCC8760894,bas_axc_run1_DMCC8760894,BY,1600,D,N,white,center,1,1,694,1,1,426,1,1,1,221501,226301,226727,222195,104495,11,117.006,117.7,121.806,122.232,28.412,260.01,491.609,231.625,463.224,694.822
1,bas,axc,1,DMCC8760894,bas_axc_run1_DMCC8760894,AX,1600,A,X,white,center,1,2,549,1,1,332,1,2,1,228701,233500,233832,229250,104495,12,124.206,124.755,129.005,129.337,28.412,260.01,491.609,231.625,463.224,694.822
1,bas,axc,1,DMCC8760894,bas_axc_run1_DMCC8760894,BY,2800,H,U,white,center,1,1,466,1,1,450,1,1,1,235900,240700,241150,236366,104495,13,131.405,131.871,136.205,136.655,28.412,260.01,491.609,231.625,463.224,694.822
1,bas,axc,1,DMCC8760894,bas_axc_run1_DMCC8760894,Bng,4000,P,9,white,center,1,,469,1,1,0,1,,1,244300,249099,0,244769,104495,14,139.805,140.274,144.604,-104.495,28.412,260.01,491.609,231.625,463.224,694.822
1,bas,axc,1,DMCC8760894,bas_axc_run1_DMCC8760894,AY,2800,A,H,white,center,1,1,532,1,1,463,1,1,1,253899,258699,259162,254431,104495,15,149.404,149.936,154.204,154.667,28.412,260.01,491.609,231.625,463.224,694.822
1,bas,axc,1,DMCC8760894,bas_axc_run1_DMCC8760894,AX,1600,A,X,white,center,1,2,510,1,1,423,1,2,1,262312,267111,267534,262822,104495,16,157.817,158.327,162.616,163.039,28.412,260.01,491.609,231.625,463.224,694.822
1,bas,axc,1,DMCC8760894,bas_axc_run1_DMCC8760894,Ang,4000,A,5,white,center,1,,493,1,1,0,1,,1,269511,274311,0,270004,104495,17,165.016,165.509,169.816,-104.495,28.412,260.01,491.609,231.625,463.224,694.822
1,bas,axc,1,DMCC8760894,bas_axc_run1_DMCC8760894,Ang,4000,A,7,white,center,1,,383,1,1,0,1,,1,279111,283910,0,279494,104495,18,174.616,174.999,179.415,-104.495,28.412,260.01,491.609,231.625,463.224,694.822
1,bas,axc,1,DMCC8760894,bas_axc_run1_DMCC8760894,BY,4000,C,D,white,center,1,1,559,1,1,393,1,1,1,288710,293510,293903,289269,104495,19,184.215,184.774,189.015,189.408,28.412,260.01,491.609,231.625,463.224,694.822
1,bas,axc,1,DMCC8760894,bas_axc_run1_DMCC8760894,BX,1600,M,X,white,center,1,1,474,1,1,1156,1,1,1,298309,303109,304265,298783,104495,20,193.814,194.288,198.614,199.77,28.412,260.01,491.609,231.625,463.224,694.822
1,bas,axc,1,DMCC8760894,bas_axc_run1_DMCC8760894,BY,1600,H,T,white,center,1,1,611,1,1,527,1,1,1,305509,310309,310836,306120,104495,21,201.014,201.625,205.814,206.341,28.412,260.01,491.609,231.625,463.224,694.822
1,bas,axc,1,DMCC8760894,bas_axc_run1_DMCC8760894,BY,2800,T,N,white,center,1,1,376,1,1,550,1,1,1,312709,317508,318058,313085,104495,22,208.214,208.59,213.013,213.563,28.412,260.01,491.609,231.625,463.224,694.822
1,bas,axc,1,DMCC8760894,bas_axc_run1_DMCC8760894,AX,2800,A,X,white,center,1,2,522,1,1,434,1,2,1,321108,325908,326342,321630,104495,23,216.613,217.135,221.413,221.847,28.412,260.01,491.609,231.625,463.224,694.822
1,bas,axc,1,DMCC8760894,bas_axc_run1_DMCC8760894,AX,1600,A,X,white,center,1,2,604,1,1,449,1,2,1,329507,334307,334756,330111,104495,24,225.012,225.616,229.812,230.261,28.412,260.01,491.609,231.625,463.224,694.822
1,bas,axc,1,DMCC8760894,bas_axc_run1_DMCC8760894,BY,2800,N,P,white,center,1,1,722,1,1,432,1,1,1,366705,371505,371937,367427,104495,25,262.21,262.932,267.01,267.442,28.412,260.01,491.609,231.625,463.224,694.822
1,bas,axc,1,DMCC8760894,bas_axc_run1_DMCC8760894,BY,4000,N,U,white,center,1,1,640,1,1,490,1,1,1,375105,379904,380394,375745,104495,26,270.61,271.25,275.409,275.899,28.412,260.01,491.609,231.625,463.224,694.822
1,bas,axc,1,DMCC8760894,bas_axc_run1_DMCC8760894,AX,1600,A,X,white,center,1,2,1090,1,1,421,1,2,1,384704,389504,389925,385794,104495,27,280.209,281.299,285.009,285.43,28.412,260.01,491.609,231.625,463.224,694.822
1,bas,axc,1,DMCC8760894,bas_axc_run1_DMCC8760894,Bng,2800,U,7,white,center,1,,715,1,1,0,1,,1,391903,396703,0,392618,104495,28,287.408,288.123,292.208,-104.495,28.412,260.01,491.609,231.625,463.224,694.822
1,bas,axc,1,DMCC8760894,bas_axc_run1_DMCC8760894,AX,1600,A,X,white,center,1,2,576,1,1,405,1,2,1,400303,405103,405508,400879,104495,29,295.808,296.384,300.608,301.013,28.412,260.01,491.609,231.625,463.224,694.822
1,bas,axc,1,DMCC8760894,bas_axc_run1_DMCC8760894,BY,1600,C,M,white,center,1,1,679,1,1,636,1,1,1,407502,412302,412938,408181,104495,30,303.007,303.686,307.807,308.443,28.412,260.01,491.609,231.625,463.224,694.822
1,bas,axc,1,DMCC8760894,bas_axc_run1_DMCC8760894,AX,4000,A,X,white,center,1,2,587,1,1,41,0,1,0,414702,419502,419543,415289,104495,31,310.207,310.794,315.007,315.048,28.412,260.01,491.609,231.625,463.224,694.822
1,bas,axc,1,DMCC8760894,bas_axc_run1_DMCC8760894,BX,4000,U,X,white,center,1,1,465,1,1,628,1,1,1,424301,429101,429729,424766,104495,32,319.806,320.271,324.606,325.234,28.412,260.01,491.609,231.625,463.224,694.822
1,bas,axc,1,DMCC8760894,bas_axc_run1_DMCC8760894,BY,2800,U,D,white,center,1,1,446,1,1,429,1,1,1,433901,438700,439129,434347,104495,33,329.406,329.852,334.205,334.634,28.412,260.01,491.609,231.625,463.224,694.822
1,bas,axc,1,DMCC8760894,bas_axc_run1_DMCC8760894,AX,1600,A,X,white,center,1,2,428,1,1,395,1,2,1,442300,447100,447495,442728,104495,34,337.805,338.233,342.605,343,28.412,260.01,491.609,231.625,463.224,694.822
1,bas,axc,1,DMCC8760894,bas_axc_run1_DMCC8760894,Ang,2800,A,3,white,center,1,,564,1,1,0,1,,1,449500,454299,0,450064,104495,35,345.005,345.569,349.804,-104.495,28.412,260.01,491.609,231.625,463.224,694.822
1,bas,axc,1,DMCC8760894,bas_axc_run1_DMCC8760894,AX,4000,A,X,white,center,1,2,411,1,1,560,1,2,1,457899,462699,463259,458310,104495,36,353.404,353.815,358.204,358.764,28.412,260.01,491.609,231.625,463.224,694.822
1,bas,axc,1,DMCC8760894,bas_axc_run1_DMCC8760894,BY,2800,D,T,white,center,1,1,633,1,1,479,1,1,1,467499,472312,472791,468132,104495,37,363.004,363.637,367.817,368.296,28.412,260.01,491.609,231.625,463.224,694.822
1,bas,axc,1,DMCC8760894,bas_axc_run1_DMCC8760894,AX,4000,A,X,white,center,1,2,758,1,1,498,1,2,1,475911,480711,481209,476669,104495,38,371.416,372.174,376.216,376.714,28.412,260.01,491.609,231.625,463.224,694.822
1,bas,axc,1,DMCC8760894,bas_axc_run1_DMCC8760894,BY,2800,M,P,white,center,1,1,479,1,1,1093,1,1,1,485511,490310,491403,485990,104495,39,381.016,381.495,385.815,386.908,28.412,260.01,491.609,231.625,463.224,694.822
1,bas,axc,1,DMCC8760894,bas_axc_run1_DMCC8760894,AX,4000,A,X,white,center,1,2,450,1,1,450,1,2,1,493910,498710,499160,494360,104495,40,389.415,389.865,394.215,394.665,28.412,260.01,491.609,231.625,463.224,694.822
1,bas,axc,1,DMCC8760894,bas_axc_run1_DMCC8760894,BY,4000,U,P,white,center,1,1,0,0,,0,0,,0,503510,508309,0,0,104495,41,399.015,-104.495,403.814,-104.495,28.412,260.01,491.609,231.625,463.224,694.822
1,bas,axc,1,DMCC8760894,bas_axc_run1_DMCC8760894,Ang,1600,A,1,white,center,1,,400,1,1,0,1,,1,513109,517909,0,513509,104495,42,408.614,409.014,413.414,-104.495,28.412,260.01,491.609,231.625,463.224,694.822
1,bas,axc,1,DMCC8760894,bas_axc_run1_DMCC8760894,BY,4000,T,M,white,center,1,1,580,1,1,610,1,1,1,520309,525108,525718,520889,104495,43,415.814,416.394,420.613,421.223,28.412,260.01,491.609,231.625,463.224,694.822
1,bas,axc,1,DMCC8760894,bas_axc_run1_DMCC8760894,AX,2800,A,X,white,center,1,2,0,0,,844,0,1,0,529908,534708,535552,0,104495,44,425.413,-104.495,430.213,431.057,28.412,260.01,491.609,231.625,463.224,694.822
1,bas,axc,1,DMCC8760894,bas_axc_run1_DMCC8760894,Bng,1600,C,8,white,center,1,,542,1,1,0,1,,1,538307,543107,0,538849,104495,45,433.812,434.354,438.612,-104.495,28.412,260.01,491.609,231.625,463.224,694.822
1,bas,axc,1,DMCC8760894,bas_axc_run1_DMCC8760894,AY,2800,A,N,white,center,1,1,482,1,1,501,1,1,1,545507,550307,550808,545989,104495,46,441.012,441.494,445.812,446.313,28.412,260.01,491.609,231.625,463.224,694.822
1,bas,axc,1,DMCC8760894,bas_axc_run1_DMCC8760894,AY,1600,A,D,white,center,1,1,696,1,1,671,1,1,1,553906,558706,559377,554602,104495,47,449.411,450.107,454.211,454.882,28.412,260.01,491.609,231.625,463.224,694.822
1,bas,axc,1,DMCC8760894,bas_axc_run1_DMCC8760894,BX,1600,C,X,white,center,1,1,735,1,1,0,0,,0,561106,565906,0,561841,104495,48,456.611,457.346,461.411,-104.495,28.412,260.01,491.609,231.625,463.224,694.822
1,bas,axc,1,DMCC8760894,bas_axc_run1_DMCC8760894,BX,2800,P,X,white,center,1,1,456,1,1,675,1,1,1,598304,603103,603778,598760,104495,49,493.809,494.265,498.608,499.283,28.412,260.01,491.609,231.625,463.224,694.822
1,bas,axc,1,DMCC8760894,bas_axc_run1_DMCC8760894,Bng,1600,N,5,white,center,1,,812,1,1,0,1,,1,606703,611503,0,607515,104495,50,502.208,503.02,507.008,-104.495,28.412,260.01,491.609,231.625,463.224,694.822
1,bas,axc,1,DMCC8760894,bas_axc_run1_DMCC8760894,BY,2800,F,C,white,center,1,1,927,1,1,685,1,1,1,613903,618702,619387,614830,104495,51,509.408,510.335,514.207,514.892,28.412,260.01,491.609,231.625,463.224,694.822
1,bas,axc,1,DMCC8760894,bas_axc_run1_DMCC8760894,AX,4000,A,X,white,center,1,2,0,0,,178,0,1,0,622302,627102,627280,0,104495,52,517.807,-104.495,522.607,522.785,28.412,260.01,491.609,231.625,463.224,694.822
1,bas,axc,1,DMCC8760894,bas_axc_run1_DMCC8760894,AY,4000,A,N,white,center,1,1,532,1,1,716,1,1,1,631901,636701,637417,632433,104495,53,527.406,527.938,532.206,532.922,28.412,260.01,491.609,231.625,463.224,694.822
1,bas,axc,1,DMCC8760894,bas_axc_run1_DMCC8760894,AY,2800,A,H,white,center,1,1,502,1,1,608,1,1,1,641501,646300,646908,642003,104495,54,537.006,537.508,541.805,542.413,28.412,260.01,491.609,231.625,463.224,694.822
1,bas,axc,1,DMCC8760894,bas_axc_run1_DMCC8760894,BX,2800,F,X,white,center,1,1,566,1,1,827,1,1,1,649900,654700,655527,650466,104495,55,545.405,545.971,550.205,551.032,28.412,260.01,491.609,231.625,463.224,694.822
1,bas,axc,1,DMCC8760894,bas_axc_run1_DMCC8760894,AX,1600,A,X,white,center,1,2,469,1,1,430,1,2,1,658300,663099,663529,658769,104495,56,553.805,554.274,558.604,559.034,28.412,260.01,491.609,231.625,463.224,694.822
1,bas,axc,1,DMCC8760894,bas_axc_run1_DMCC8760894,BY,1600,M,F,white,center,1,1,1010,1,1,621,1,1,1,665499,670299,670920,666509,104495,57,561.004,562.014,565.804,566.425,28.412,260.01,491.609,231.625,463.224,694.822
1,bas,axc,1,DMCC8760894,bas_axc_run1_DMCC8760894,AX,4000,A,X,white,center,1,2,362,1,1,423,1,2,1,672699,677512,677935,673061,104495,58,568.204,568.566,573.017,573.44,28.412,260.01,491.609,231.625,463.224,694.822
1,bas,axc,1,DMCC8760894,bas_axc_run1_DMCC8760894,BY,4000,P,H,white,center,1,1,531,1,1,0,0,,0,682311,687111,0,682842,104495,59,577.816,578.347,582.616,-104.495,28.412,260.01,491.609,231.625,463.224,694.822
1,bas,axc,1,DMCC8760894,bas_axc_run1_DMCC8760894,AX,1600,A,X,white,center,1,2,586,1,1,417,1,2,1,691911,696711,697128,692497,104495,60,587.416,588.002,592.216,592.633,28.412,260.01,491.609,231.625,463.224,694.822
1,bas,axc,1,DMCC8760894,bas_axc_run1_DMCC8760894,Bng,2800,F,9,white,center,1,,557,1,1,0,1,,1,699110,703910,0,699667,104495,61,594.615,595.172,599.415,-104.495,28.412,260.01,491.609,231.625,463.224,694.822
1,bas,axc,1,DMCC8760894,bas_axc_run1_DMCC8760894,AX,1600,A,X,white,center,1,2,411,1,1,504,1,2,1,707510,712310,712814,707921,104495,62,603.015,603.426,607.815,608.319,28.412,260.01,491.609,231.625,463.224,694.822
1,bas,axc,1,DMCC8760894,bas_axc_run1_DMCC8760894,Ang,2800,A,9,white,center,1,,490,1,1,0,1,,1,714709,719509,0,715199,104495,63,610.214,610.704,615.014,-104.495,28.412,260.01,491.609,231.625,463.224,694.822
1,bas,axc,1,DMCC8760894,bas_axc_run1_DMCC8760894,BY,1600,M,F,white,center,1,1,593,1,1,575,1,1,1,723109,727909,728484,723702,104495,64,618.614,619.207,623.414,623.989,28.412,260.01,491.609,231.625,463.224,694.822
1,bas,axc,1,DMCC8760894,bas_axc_run1_DMCC8760894,Ang,1600,A,7,white,center,1,,583,1,1,0,1,,1,730308,735108,0,730891,104495,65,625.813,626.396,630.613,-104.495,28.412,260.01,491.609,231.625,463.224,694.822
1,bas,axc,1,DMCC8760894,bas_axc_run1_DMCC8760894,AX,4000,A,X,white,center,1,2,818,1,1,756,1,2,1,737508,742308,743064,738326,104495,66,633.013,633.831,637.813,638.569,28.412,260.01,491.609,231.625,463.224,694.822
1,bas,axc,1,DMCC8760894,bas_axc_run1_DMCC8760894,BY,4000,C,M,white,center,1,1,580,1,1,514,1,1,1,747107,751907,752421,747687,104495,67,642.612,643.192,647.412,647.926,28.412,260.01,491.609,231.625,463.224,694.822
1,bas,axc,1,DMCC8760894,bas_axc_run1_DMCC8760894,BY,4000,U,P,white,center,1,1,456,1,1,417,1,1,1,756707,761506,761923,757163,104495,68,652.212,652.668,657.011,657.428,28.412,260.01,491.609,231.625,463.224,694.822
1,bas,axc,1,DMCC8760894,bas_axc_run1_DMCC8760894,BY,1600,D,N,white,center,1,1,0,0,,527,1,1,0,766306,771106,771633,0,104495,69,661.811,-104.495,666.611,667.138,28.412,260.01,491.609,231.625,463.224,694.822
1,bas,axc,1,DMCC8760894,bas_axc_run1_DMCC8760894,BY,2800,M,P,white,center,1,1,455,1,1,483,1,1,1,773506,778305,778788,773961,104495,70,669.011,669.466,673.81,674.293,28.412,260.01,491.609,231.625,463.224,694.822
1,bas,axc,1,DMCC8760894,bas_axc_run1_DMCC8760894,AX,2800,A,X,white,center,1,2,754,1,1,824,1,2,1,781905,786705,787529,782659,104495,71,677.41,678.164,682.21,683.034,28.412,260.01,491.609,231.625,463.224,694.822
1,bas,axc,1,DMCC8760894,bas_axc_run1_DMCC8760894,AX,4000,A,X,white,center,1,2,533,1,1,413,1,2,1,790305,795104,795517,790838,104495,72,685.81,686.343,690.609,691.022,28.412,260.01,491.609,231.625,463.224,694.822
1,bas,axc,2,DMCC8760894,bas_axc_run2_DMCC8760894,BY,4000,C,F,white,center,1,1,475,1,1,478,1,1,1,71655,76455,76933,72130,41049,1,30.606,31.081,35.406,35.884,28.406,260.005,491.603,231.62,463.218,694.817
1,bas,axc,2,DMCC8760894,bas_axc_run2_DMCC8760894,BY,2800,H,F,white,center,1,1,458,1,1,413,1,1,1,81255,86054,86467,81713,41049,2,40.206,40.664,45.005,45.418,28.406,260.005,491.603,231.62,463.218,694.817
1,bas,axc,2,DMCC8760894,bas_axc_run2_DMCC8760894,BY,4000,D,U,white,center,1,1,394,1,1,443,1,1,1,89654,94454,94897,90048,41049,3,48.605,48.999,53.405,53.848,28.406,260.005,491.603,231.62,463.218,694.817
1,bas,axc,2,DMCC8760894,bas_axc_run2_DMCC8760894,AX,1600,A,X,white,center,1,2,415,1,1,434,1,2,1,99253,104053,104487,99668,41049,4,58.204,58.619,63.004,63.438,28.406,260.005,491.603,231.62,463.218,694.817
1,bas,axc,2,DMCC8760894,bas_axc_run2_DMCC8760894,BY,4000,F,D,white,center,1,1,466,1,1,519,1,1,1,106453,111253,111772,106919,41049,5,65.404,65.87,70.204,70.723,28.406,260.005,491.603,231.62,463.218,694.817
1,bas,axc,2,DMCC8760894,bas_axc_run2_DMCC8760894,AY,1600,A,M,white,center,1,1,424,1,1,361,1,1,1,116052,120852,121213,116476,41049,6,75.003,75.427,79.803,80.164,28.406,260.005,491.603,231.62,463.218,694.817
1,bas,axc,2,DMCC8760894,bas_axc_run2_DMCC8760894,AX,2800,A,X,white,center,1,2,522,1,1,563,1,2,1,123252,128052,128615,123774,41049,7,82.203,82.725,87.003,87.566,28.406,260.005,491.603,231.62,463.218,694.817
1,bas,axc,2,DMCC8760894,bas_axc_run2_DMCC8760894,BX,2800,T,X,white,center,1,1,864,1,1,818,1,1,1,131651,136451,137269,132515,41049,8,90.602,91.466,95.402,96.22,28.406,260.005,491.603,231.62,463.218,694.817
1,bas,axc,2,DMCC8760894,bas_axc_run2_DMCC8760894,BY,4000,U,T,white,center,1,1,0,0,,465,1,1,0,140051,144864,145329,0,41049,9,99.002,-41.049,103.815,104.28,28.406,260.005,491.603,231.62,463.218,694.817
1,bas,axc,2,DMCC8760894,bas_axc_run2_DMCC8760894,BY,1600,P,T,white,center,1,1,544,1,1,452,1,1,1,149663,154463,154915,150207,41049,10,108.614,109.158,113.414,113.866,28.406,260.005,491.603,231.62,463.218,694.817
1,bas,axc,2,DMCC8760894,bas_axc_run2_DMCC8760894,Bng,1600,H,1,white,center,1,,555,1,1,0,1,,1,156863,161663,0,157418,41049,11,115.814,116.369,120.614,-41.049,28.406,260.005,491.603,231.62,463.218,694.817
1,bas,axc,2,DMCC8760894,bas_axc_run2_DMCC8760894,BY,2800,D,C,white,center,1,1,673,1,1,455,1,1,1,164063,168862,169317,164736,41049,12,123.014,123.687,127.813,128.268,28.406,260.005,491.603,231.62,463.218,694.817
1,bas,axc,2,DMCC8760894,bas_axc_run2_DMCC8760894,Ang,1600,A,4,white,center,1,,458,1,1,0,1,,1,172462,177262,0,172920,41049,13,131.413,131.871,136.213,-41.049,28.406,260.005,491.603,231.62,463.218,694.817
1,bas,axc,2,DMCC8760894,bas_axc_run2_DMCC8760894,AX,1600,A,X,white,center,1,2,0,0,,578,0,1,0,179662,184461,185039,0,41049,14,138.613,-41.049,143.412,143.99,28.406,260.005,491.603,231.62,463.218,694.817
1,bas,axc,2,DMCC8760894,bas_axc_run2_DMCC8760894,Ang,4000,A,2,white,center,1,,440,1,1,0,1,,1,186861,191661,0,187301,41049,15,145.812,146.252,150.612,-41.049,28.406,260.005,491.603,231.62,463.218,694.817
1,bas,axc,2,DMCC8760894,bas_axc_run2_DMCC8760894,AX,2800,A,X,white,center,1,2,536,1,1,670,0,1,0,196460,201260,201930,196996,41049,16,155.411,155.947,160.211,160.881,28.406,260.005,491.603,231.62,463.218,694.817
1,bas,axc,2,DMCC8760894,bas_axc_run2_DMCC8760894,Bng,2800,D,3,white,center,1,,538,1,1,0,1,,1,204860,209660,0,205398,41049,17,163.811,164.349,168.611,-41.049,28.406,260.005,491.603,231.62,463.218,694.817
1,bas,axc,2,DMCC8760894,bas_axc_run2_DMCC8760894,AY,2800,A,U,white,center,1,1,738,1,1,674,1,1,1,213259,218059,218733,213997,41049,18,172.21,172.948,177.01,177.684,28.406,260.005,491.603,231.62,463.218,694.817
1,bas,axc,2,DMCC8760894,bas_axc_run2_DMCC8760894,BX,4000,D,X,white,center,1,1,559,1,1,579,1,1,1,221659,226459,227038,222218,41049,19,180.61,181.169,185.41,185.989,28.406,260.005,491.603,231.62,463.218,694.817
1,bas,axc,2,DMCC8760894,bas_axc_run2_DMCC8760894,AX,1600,A,X,white,center,1,2,456,1,1,369,1,2,1,231258,236058,236427,231714,41049,20,190.209,190.665,195.009,195.378,28.406,260.005,491.603,231.62,463.218,694.817
1,bas,axc,2,DMCC8760894,bas_axc_run2_DMCC8760894,AX,4000,A,X,white,center,1,2,659,1,1,389,1,2,1,238458,243257,243646,239117,41049,21,197.409,198.068,202.208,202.597,28.406,260.005,491.603,231.62,463.218,694.817
1,bas,axc,2,DMCC8760894,bas_axc_run2_DMCC8760894,AX,2800,A,X,white,center,1,2,433,1,1,536,1,2,1,248057,252857,253393,248490,41049,22,207.008,207.441,211.808,212.344,28.406,260.005,491.603,231.62,463.218,694.817
1,bas,axc,2,DMCC8760894,bas_axc_run2_DMCC8760894,BY,4000,T,H,white,center,1,1,496,1,1,655,1,1,1,256457,261256,261911,256953,41049,23,215.408,215.904,220.207,220.862,28.406,260.005,491.603,231.62,463.218,694.817
1,bas,axc,2,DMCC8760894,bas_axc_run2_DMCC8760894,AX,1600,A,X,white,center,1,2,401,1,1,452,1,2,1,266056,270856,271308,266457,41049,24,225.007,225.408,229.807,230.259,28.406,260.005,491.603,231.62,463.218,694.817
1,bas,axc,2,DMCC8760894,bas_axc_run2_DMCC8760894,Ang,2800,A,8,white,center,1,,444,1,1,0,1,,1,303254,308053,0,303698,41049,25,262.205,262.649,267.004,-41.049,28.406,260.005,491.603,231.62,463.218,694.817
1,bas,axc,2,DMCC8760894,bas_axc_run2_DMCC8760894,Bng,2800,C,3,white,center,1,,468,1,1,0,1,,1,311653,316453,0,312121,41049,26,270.604,271.072,275.404,-41.049,28.406,260.005,491.603,231.62,463.218,694.817
1,bas,axc,2,DMCC8760894,bas_axc_run2_DMCC8760894,BY,4000,U,F,white,center,1,1,754,1,1,451,1,1,1,320053,324852,325303,320807,41049,27,279.004,279.758,283.803,284.254,28.406,260.005,491.603,231.62,463.218,694.817
1,bas,axc,2,DMCC8760894,bas_axc_run2_DMCC8760894,BX,1600,N,X,white,center,1,1,0,0,,0,0,,0,329652,334452,0,0,41049,28,288.603,-41.049,293.403,-41.049,28.406,260.005,491.603,231.62,463.218,694.817
1,bas,axc,2,DMCC8760894,bas_axc_run2_DMCC8760894,Ang,2800,A,6,white,center,1,,466,1,1,0,1,,1,336851,341651,0,337317,41049,29,295.802,296.268,300.602,-41.049,28.406,260.005,491.603,231.62,463.218,694.817
1,bas,axc,2,DMCC8760894,bas_axc_run2_DMCC8760894,AX,1600,A,X,white,center,1,2,0,0,,436,0,1,0,345251,350051,350487,0,41049,30,304.202,-41.049,309.002,309.438,28.406,260.005,491.603,231.62,463.218,694.817
1,bas,axc,2,DMCC8760894,bas_axc_run2_DMCC8760894,BY,1600,C,N,white,center,1,1,638,1,1,626,1,1,1,352464,357263,357889,353102,41049,31,311.415,312.053,316.214,316.84,28.406,260.005,491.603,231.62,463.218,694.817
1,bas,axc,2,DMCC8760894,bas_axc_run2_DMCC8760894,AX,1600,A,X,white,center,1,2,0,0,,0,0,,0,359663,364463,0,0,41049,32,318.614,-41.049,323.414,-41.049,28.406,260.005,491.603,231.62,463.218,694.817
1,bas,axc,2,DMCC8760894,bas_axc_run2_DMCC8760894,BY,4000,H,C,white,center,1,1,0,0,,0,0,,0,366863,371663,0,0,41049,33,325.814,-41.049,330.614,-41.049,28.406,260.005,491.603,231.62,463.218,694.817
1,bas,axc,2,DMCC8760894,bas_axc_run2_DMCC8760894,AX,4000,A,X,white,center,1,2,400,1,1,435,1,2,1,376462,381262,381697,376862,41049,34,335.413,335.813,340.213,340.648,28.406,260.005,491.603,231.62,463.218,694.817
1,bas,axc,2,DMCC8760894,bas_axc_run2_DMCC8760894,AX,2800,A,X,white,center,1,2,454,1,1,332,1,2,1,386062,390861,391193,386516,41049,35,345.013,345.467,349.812,350.144,28.406,260.005,491.603,231.62,463.218,694.817
1,bas,axc,2,DMCC8760894,bas_axc_run2_DMCC8760894,AX,4000,A,X,white,center,1,2,343,1,1,425,1,2,1,394461,399261,399686,394804,41049,36,353.412,353.755,358.212,358.637,28.406,260.005,491.603,231.62,463.218,694.817
1,bas,axc,2,DMCC8760894,bas_axc_run2_DMCC8760894,BY,4000,P,C,white,center,1,1,532,1,1,457,1,1,1,404060,408860,409317,404592,41049,37,363.011,363.543,367.811,368.268,28.406,260.005,491.603,231.62,463.218,694.817
1,bas,axc,2,DMCC8760894,bas_axc_run2_DMCC8760894,AX,4000,A,X,white,center,1,2,498,1,1,818,0,1,0,413660,418460,419278,414158,41049,38,372.611,373.109,377.411,378.229,28.406,260.005,491.603,231.62,463.218,694.817
1,bas,axc,2,DMCC8760894,bas_axc_run2_DMCC8760894,AX,1600,A,X,white,center,1,2,358,1,1,381,1,2,1,423259,428059,428440,423617,41049,39,382.21,382.568,387.01,387.391,28.406,260.005,491.603,231.62,463.218,694.817
1,bas,axc,2,DMCC8760894,bas_axc_run2_DMCC8760894,BY,1600,F,H,white,center,1,1,612,1,1,760,1,1,1,430459,435258,436018,431071,41049,40,389.41,390.022,394.209,394.969,28.406,260.005,491.603,231.62,463.218,694.817
1,bas,axc,2,DMCC8760894,bas_axc_run2_DMCC8760894,BY,2800,M,U,white,center,1,1,0,0,,0,0,,0,437658,442458,0,0,41049,41,396.609,-41.049,401.409,-41.049,28.406,260.005,491.603,231.62,463.218,694.817
1,bas,axc,2,DMCC8760894,bas_axc_run2_DMCC8760894,AY,1600,A,F,white,center,1,1,463,1,1,0,0,,0,446058,450857,0,446521,41049,42,405.009,405.472,409.808,-41.049,28.406,260.005,491.603,231.62,463.218,694.817
1,bas,axc,2,DMCC8760894,bas_axc_run2_DMCC8760894,BY,2800,N,H,white,center,1,1,1072,1,1,494,1,1,1,453257,458057,458551,454329,41049,43,412.208,413.28,417.008,417.502,28.406,260.005,491.603,231.62,463.218,694.817
1,bas,axc,2,DMCC8760894,bas_axc_run2_DMCC8760894,BX,4000,H,X,white,center,1,1,506,1,1,439,1,1,1,461657,466456,466895,462163,41049,44,420.608,421.114,425.407,425.846,28.406,260.005,491.603,231.62,463.218,694.817
1,bas,axc,2,DMCC8760894,bas_axc_run2_DMCC8760894,Bng,1600,N,2,white,center,1,,0,0,,0,1,,0,471256,476056,0,0,41049,45,430.207,-41.049,435.007,-41.049,28.406,260.005,491.603,231.62,463.218,694.817
1,bas,axc,2,DMCC8760894,bas_axc_run2_DMCC8760894,AY,4000,A,C,white,center,1,1,682,1,1,662,1,1,1,478456,483255,483917,479138,41049,46,437.407,438.089,442.206,442.868,28.406,260.005,491.603,231.62,463.218,694.817
1,bas,axc,2,DMCC8760894,bas_axc_run2_DMCC8760894,AX,2800,A,X,white,center,1,2,0,0,,650,0,1,0,488055,492855,493505,0,41049,47,447.006,-41.049,451.806,452.456,28.406,260.005,491.603,231.62,463.218,694.817
1,bas,axc,2,DMCC8760894,bas_axc_run2_DMCC8760894,BY,2800,T,P,white,center,1,1,553,1,1,447,1,1,1,496455,501254,501701,497008,41049,48,455.406,455.959,460.205,460.652,28.406,260.005,491.603,231.62,463.218,694.817
1,bas,axc,2,DMCC8760894,bas_axc_run2_DMCC8760894,Ang,1600,A,8,white,center,1,,0,0,,0,1,,0,534852,539652,0,0,41049,49,493.803,-41.049,498.603,-41.049,28.406,260.005,491.603,231.62,463.218,694.817
1,bas,axc,2,DMCC8760894,bas_axc_run2_DMCC8760894,AX,1600,A,X,white,center,1,2,420,1,1,379,1,2,1,542052,546851,547230,542472,41049,50,501.003,501.423,505.802,506.181,28.406,260.005,491.603,231.62,463.218,694.817
1,bas,axc,2,DMCC8760894,bas_axc_run2_DMCC8760894,BY,2800,M,N,white,center,1,1,581,1,1,481,1,1,1,549251,554051,554532,549832,41049,51,508.202,508.783,513.002,513.483,28.406,260.005,491.603,231.62,463.218,694.817
1,bas,axc,2,DMCC8760894,bas_axc_run2_DMCC8760894,BY,2800,N,D,white,center,1,1,1147,1,1,547,1,1,1,557651,562464,563011,558798,41049,52,516.602,517.749,521.415,521.962,28.406,260.005,491.603,231.62,463.218,694.817
1,bas,axc,2,DMCC8760894,bas_axc_run2_DMCC8760894,BY,4000,F,D,white,center,1,1,985,1,1,404,1,1,1,566063,570863,571267,567048,41049,53,525.014,525.999,529.814,530.218,28.406,260.005,491.603,231.62,463.218,694.817
1,bas,axc,2,DMCC8760894,bas_axc_run2_DMCC8760894,BX,1600,T,X,white,center,1,1,467,1,1,776,1,1,1,575663,580462,581238,576130,41049,54,534.614,535.081,539.413,540.189,28.406,260.005,491.603,231.62,463.218,694.817
1,bas,axc,2,DMCC8760894,bas_axc_run2_DMCC8760894,AX,4000,A,X,white,center,1,2,588,1,1,460,0,1,0,582862,587662,588122,583450,41049,55,541.813,542.401,546.613,547.073,28.406,260.005,491.603,231.62,463.218,694.817
1,bas,axc,2,DMCC8760894,bas_axc_run2_DMCC8760894,BY,4000,T,P,white,center,1,1,638,1,1,0,0,,0,592462,597261,0,593100,41049,56,551.413,552.051,556.212,-41.049,28.406,260.005,491.603,231.62,463.218,694.817
1,bas,axc,2,DMCC8760894,bas_axc_run2_DMCC8760894,AX,2800,A,X,white,center,1,2,0,0,,0,0,,0,602061,606861,0,0,41049,57,561.012,-41.049,565.812,-41.049,28.406,260.005,491.603,231.62,463.218,694.817
1,bas,axc,2,DMCC8760894,bas_axc_run2_DMCC8760894,AY,1600,A,P,white,center,1,1,0,0,,433,1,1,0,610461,615260,615693,0,41049,58,569.412,-41.049,574.211,574.644,28.406,260.005,491.603,231.62,463.218,694.817
1,bas,axc,2,DMCC8760894,bas_axc_run2_DMCC8760894,AY,4000,A,F,white,center,1,1,445,1,1,515,1,1,1,617660,622460,622975,618105,41049,59,576.611,577.056,581.411,581.926,28.406,260.005,491.603,231.62,463.218,694.817
1,bas,axc,2,DMCC8760894,bas_axc_run2_DMCC8760894,AX,2800,A,X,white,center,1,2,860,1,1,352,1,2,1,627259,632059,632411,628119,41049,60,586.21,587.07,591.01,591.362,28.406,260.005,491.603,231.62,463.218,694.817
1,bas,axc,2,DMCC8760894,bas_axc_run2_DMCC8760894,AX,2800,A,X,white,center,1,2,540,1,1,574,1,2,1,635659,640459,641033,636199,41049,61,594.61,595.15,599.41,599.984,28.406,260.005,491.603,231.62,463.218,694.817
1,bas,axc,2,DMCC8760894,bas_axc_run2_DMCC8760894,BY,2800,C,F,white,center,1,1,563,1,1,522,1,1,1,644058,648858,649380,644621,41049,62,603.009,603.572,607.809,608.331,28.406,260.005,491.603,231.62,463.218,694.817
1,bas,axc,2,DMCC8760894,bas_axc_run2_DMCC8760894,AX,4000,A,X,white,center,1,2,0,0,,0,0,,0,652458,657258,0,0,41049,63,611.409,-41.049,616.209,-41.049,28.406,260.005,491.603,231.62,463.218,694.817
1,bas,axc,2,DMCC8760894,bas_axc_run2_DMCC8760894,BY,2800,U,T,white,center,1,1,531,1,1,0,0,,0,662057,666857,0,662588,41049,64,621.008,621.539,625.808,-41.049,28.406,260.005,491.603,231.62,463.218,694.817
1,bas,axc,2,DMCC8760894,bas_axc_run2_DMCC8760894,Bng,1600,M,8,white,center,1,,0,0,,0,1,,0,670457,675256,0,0,41049,65,629.408,-41.049,634.207,-41.049,28.406,260.005,491.603,231.62,463.218,694.817
1,bas,axc,2,DMCC8760894,bas_axc_run2_DMCC8760894,AX,2800,A,X,white,center,1,2,698,1,1,490,1,2,1,677656,682456,682946,678354,41049,66,636.607,637.305,641.407,641.897,28.406,260.005,491.603,231.62,463.218,694.817
1,bas,axc,2,DMCC8760894,bas_axc_run2_DMCC8760894,BY,4000,D,U,white,center,1,1,512,1,1,481,1,1,1,686056,690855,691336,686568,41049,67,645.007,645.519,649.806,650.287,28.406,260.005,491.603,231.62,463.218,694.817
1,bas,axc,2,DMCC8760894,bas_axc_run2_DMCC8760894,Bng,1600,P,7,white,center,1,,0,0,,0,1,,0,695655,700455,0,0,41049,68,654.606,-41.049,659.406,-41.049,28.406,260.005,491.603,231.62,463.218,694.817
1,bas,axc,2,DMCC8760894,bas_axc_run2_DMCC8760894,BX,4000,N,X,white,center,1,1,0,0,,594,1,1,0,702855,707654,708248,0,41049,69,661.806,-41.049,666.605,667.199,28.406,260.005,491.603,231.62,463.218,694.817
1,bas,axc,2,DMCC8760894,bas_axc_run2_DMCC8760894,AX,1600,A,X,white,center,1,2,544,1,1,376,1,2,1,712454,717254,717630,712998,41049,70,671.405,671.949,676.205,676.581,28.406,260.005,491.603,231.62,463.218,694.817
1,bas,axc,2,DMCC8760894,bas_axc_run2_DMCC8760894,Ang,4000,A,2,white,center,1,,0,0,,0,1,,0,719654,724453,0,0,41049,71,678.605,-41.049,683.404,-41.049,28.406,260.005,491.603,231.62,463.218,694.817
1,bas,axc,2,DMCC8760894,bas_axc_run2_DMCC8760894,BY,1600,U,F,white,center,1,1,0,0,,0,0,,0,729253,734053,0,0,41049,72,688.204,-41.049,693.004,-41.049,28.406,260.005,491.603,231.62,463.218,694.817
1,pro,axc,1,DMCC8760894,pro_axc_run1_DMCC8760894,AY,2800,A,F,white,center,1,1,488,1,1,558,1,1,1,192735,197535,198093,193223,162126,1,30.609,31.097,35.409,35.967,28.409,260.018,491.614,231.632,463.228,694.824
1,pro,axc,1,DMCC8760894,pro_axc_run1_DMCC8760894,BY,1600,N,D,white,center,1,1,603,1,1,379,1,1,1,201135,205935,206314,201738,162126,2,39.009,39.612,43.809,44.188,28.409,260.018,491.614,231.632,463.228,694.824
1,pro,axc,1,DMCC8760894,pro_axc_run1_DMCC8760894,AX,4000,A,X,white,center,1,2,351,1,1,367,1,2,1,208334,213134,213501,208685,162126,3,46.208,46.559,51.008,51.375,28.409,260.018,491.614,231.632,463.228,694.824
1,pro,axc,1,DMCC8760894,pro_axc_run1_DMCC8760894,BY,4000,M,N,white,center,1,1,382,1,1,403,1,1,1,217934,222734,223137,218316,162126,4,55.808,56.19,60.608,61.011,28.409,260.018,491.614,231.632,463.228,694.824
1,pro,axc,1,DMCC8760894,pro_axc_run1_DMCC8760894,BY,2800,T,H,white,center,1,1,349,1,1,432,1,1,1,227534,232334,232766,227883,162126,5,65.408,65.757,70.208,70.64,28.409,260.018,491.614,231.632,463.228,694.824
1,pro,axc,1,DMCC8760894,pro_axc_run1_DMCC8760894,AX,2800,A,X,white,center,1,2,350,1,1,306,1,2,1,235934,240734,241040,236284,162126,6,73.808,74.158,78.608,78.914,28.409,260.018,491.614,231.632,463.228,694.824
1,pro,axc,1,DMCC8760894,pro_axc_run1_DMCC8760894,AX,1600,A,X,white,center,1,2,402,1,1,383,1,2,1,244334,249134,249517,244736,162126,7,82.208,82.61,87.008,87.391,28.409,260.018,491.614,231.632,463.228,694.824
1,pro,axc,1,DMCC8760894,pro_axc_run1_DMCC8760894,Ang,2800,A,8,white,center,1,,601,1,1,447,0,1,0,251534,256334,256781,252135,162126,8,89.408,90.009,94.208,94.655,28.409,260.018,491.614,231.632,463.228,694.824
1,pro,axc,1,DMCC8760894,pro_axc_run1_DMCC8760894,BX,4000,N,X,white,center,1,1,326,1,1,359,1,1,1,259934,264733,265092,260260,162126,9,97.808,98.134,102.607,102.966,28.409,260.018,491.614,231.632,463.228,694.824
1,pro,axc,1,DMCC8760894,pro_axc_run1_DMCC8760894,BY,1600,F,H,white,center,1,1,403,1,1,368,1,1,1,269533,274333,274701,269936,162126,10,107.407,107.81,112.207,112.575,28.409,260.018,491.614,231.632,463.228,694.824
1,pro,axc,1,DMCC8760894,pro_axc_run1_DMCC8760894,AX,4000,A,X,white,center,1,2,521,1,1,287,1,2,1,276733,281533,281820,277254,162126,11,114.607,115.128,119.407,119.694,28.409,260.018,491.614,231.632,463.228,694.824
1,pro,axc,1,DMCC8760894,pro_axc_run1_DMCC8760894,AX,1600,A,X,white,center,1,2,598,1,1,336,1,2,1,286333,291133,291469,286931,162126,12,124.207,124.805,129.007,129.343,28.409,260.018,491.614,231.632,463.228,694.824
1,pro,axc,1,DMCC8760894,pro_axc_run1_DMCC8760894,AX,4000,A,X,white,center,1,2,449,1,1,389,1,2,1,293533,298333,298722,293982,162126,13,131.407,131.856,136.207,136.596,28.409,260.018,491.614,231.632,463.228,694.824
1,pro,axc,1,DMCC8760894,pro_axc_run1_DMCC8760894,AX,1600,A,X,white,center,1,2,504,1,1,312,1,2,1,303133,307933,308245,303637,162126,14,141.007,141.511,145.807,146.119,28.409,260.018,491.614,231.632,463.228,694.824
1,pro,axc,1,DMCC8760894,pro_axc_run1_DMCC8760894,BY,4000,D,U,white,center,1,1,598,1,1,338,1,1,1,310333,315133,315471,310931,162126,15,148.207,148.805,153.007,153.345,28.409,260.018,491.614,231.632,463.228,694.824
1,pro,axc,1,DMCC8760894,pro_axc_run1_DMCC8760894,Bng,4000,F,6,white,center,1,,0,0,,340,0,1,0,319933,324732,325072,0,162126,16,157.807,-162.126,162.606,162.946,28.409,260.018,491.614,231.632,463.228,694.824
1,pro,axc,1,DMCC8760894,pro_axc_run1_DMCC8760894,Bng,1600,C,7,white,center,1,,498,1,1,0,1,,1,329532,334332,0,330030,162126,17,167.406,167.904,172.206,-162.126,28.409,260.018,491.614,231.632,463.228,694.824
1,pro,axc,1,DMCC8760894,pro_axc_run1_DMCC8760894,AY,4000,A,C,white,center,1,1,553,1,1,521,1,1,1,336732,341532,342053,337285,162126,18,174.606,175.159,179.406,179.927,28.409,260.018,491.614,231.632,463.228,694.824
1,pro,axc,1,DMCC8760894,pro_axc_run1_DMCC8760894,BX,2800,T,X,white,center,1,1,392,1,1,510,1,1,1,346332,351132,351642,346724,162126,19,184.206,184.598,189.006,189.516,28.409,260.018,491.614,231.632,463.228,694.824
1,pro,axc,1,DMCC8760894,pro_axc_run1_DMCC8760894,BY,2800,D,C,white,center,1,1,606,1,1,503,1,1,1,354732,359532,360035,355338,162126,20,192.606,193.212,197.406,197.909,28.409,260.018,491.614,231.632,463.228,694.824
1,pro,axc,1,DMCC8760894,pro_axc_run1_DMCC8760894,BY,2800,N,H,white,center,1,1,520,1,1,564,1,1,1,363132,367932,368496,363652,162126,21,201.006,201.526,205.806,206.37,28.409,260.018,491.614,231.632,463.228,694.824
1,pro,axc,1,DMCC8760894,pro_axc_run1_DMCC8760894,BY,2800,H,C,white,center,1,1,711,1,1,0,0,,0,371532,376332,0,372243,162126,22,209.406,210.117,214.206,-162.126,28.409,260.018,491.614,231.632,463.228,694.824
1,pro,axc,1,DMCC8760894,pro_axc_run1_DMCC8760894,Ang,1600,A,4,white,center,1,,439,1,1,0,1,,1,379945,384745,0,380384,162126,23,217.819,218.258,222.619,-162.126,28.409,260.018,491.614,231.632,463.228,694.824
1,pro,axc,1,DMCC8760894,pro_axc_run1_DMCC8760894,AX,1600,A,X,white,center,1,2,630,1,1,399,1,2,1,387145,391945,392344,387775,162126,24,225.019,225.649,229.819,230.218,28.409,260.018,491.614,231.632,463.228,694.824
1,pro,axc,1,DMCC8760894,pro_axc_run1_DMCC8760894,AX,2800,A,X,white,center,1,2,0,0,,700,0,1,0,424344,429144,429844,0,162126,25,262.218,-162.126,267.018,267.718,28.409,260.018,491.614,231.632,463.228,694.824
1,pro,axc,1,DMCC8760894,pro_axc_run1_DMCC8760894,BX,2800,H,X,white,center,1,1,370,1,1,434,0,2,0,432744,437544,437978,433114,162126,26,270.618,270.988,275.418,275.852,28.409,260.018,491.614,231.632,463.228,694.824
1,pro,axc,1,DMCC8760894,pro_axc_run1_DMCC8760894,AX,4000,A,X,white,center,1,2,297,1,1,418,1,2,1,441144,445944,446362,441441,162126,27,279.018,279.315,283.818,284.236,28.409,260.018,491.614,231.632,463.228,694.824
1,pro,axc,1,DMCC8760894,pro_axc_run1_DMCC8760894,AX,4000,A,X,white,center,1,2,429,1,1,304,1,2,1,450744,455544,455848,451173,162126,28,288.618,289.047,293.418,293.722,28.409,260.018,491.614,231.632,463.228,694.824
1,pro,axc,1,DMCC8760894,pro_axc_run1_DMCC8760894,AY,4000,A,P,white,center,1,1,0,0,,445,1,1,0,460343,465143,465588,0,162126,29,298.217,-162.126,303.017,303.462,28.409,260.018,491.614,231.632,463.228,694.824
1,pro,axc,1,DMCC8760894,pro_axc_run1_DMCC8760894,BY,1600,M,U,white,center,1,1,517,1,1,606,1,1,1,469943,474743,475349,470460,162126,30,307.817,308.334,312.617,313.223,28.409,260.018,491.614,231.632,463.228,694.824
1,pro,axc,1,DMCC8760894,pro_axc_run1_DMCC8760894,BY,1600,C,N,white,center,1,1,661,1,1,383,1,1,1,477143,481943,482326,477804,162126,31,315.017,315.678,319.817,320.2,28.409,260.018,491.614,231.632,463.228,694.824
1,pro,axc,1,DMCC8760894,pro_axc_run1_DMCC8760894,Bng,2800,P,2,white,center,1,,387,1,1,0,1,,1,484343,489143,0,484730,162126,32,322.217,322.604,327.017,-162.126,28.409,260.018,491.614,231.632,463.228,694.824
1,pro,axc,1,DMCC8760894,pro_axc_run1_DMCC8760894,BY,1600,C,F,white,center,1,1,410,1,1,421,1,1,1,492743,497543,497964,493153,162126,33,330.617,331.027,335.417,335.838,28.409,260.018,491.614,231.632,463.228,694.824
1,pro,axc,1,DMCC8760894,pro_axc_run1_DMCC8760894,AX,4000,A,X,white,center,1,2,912,1,1,382,1,2,1,499943,504743,505125,500855,162126,34,337.817,338.729,342.617,342.999,28.409,260.018,491.614,231.632,463.228,694.824
1,pro,axc,1,DMCC8760894,pro_axc_run1_DMCC8760894,BY,1600,P,T,white,center,1,1,461,1,1,417,1,1,1,509543,514343,514760,510004,162126,35,347.417,347.878,352.217,352.634,28.409,260.018,491.614,231.632,463.228,694.824
1,pro,axc,1,DMCC8760894,pro_axc_run1_DMCC8760894,AY,2800,A,U,white,center,1,1,716,1,1,720,1,1,1,516742,521542,522262,517458,162126,36,354.616,355.332,359.416,360.136,28.409,260.018,491.614,231.632,463.228,694.824
1,pro,axc,1,DMCC8760894,pro_axc_run1_DMCC8760894,BX,1600,D,X,white,center,1,1,0,0,,651,1,1,0,525142,529942,530593,0,162126,37,363.016,-162.126,367.816,368.467,28.409,260.018,491.614,231.632,463.228,694.824
1,pro,axc,1,DMCC8760894,pro_axc_run1_DMCC8760894,AX,2800,A,X,white,center,1,2,482,1,1,0,0,,0,532342,537142,0,532824,162126,38,370.216,370.698,375.016,-162.126,28.409,260.018,491.614,231.632,463.228,694.824
1,pro,axc,1,DMCC8760894,pro_axc_run1_DMCC8760894,Ang,2800,A,6,white,center,1,,489,1,1,0,1,,1,540742,545542,0,541231,162126,39,378.616,379.105,383.416,-162.126,28.409,260.018,491.614,231.632,463.228,694.824
1,pro,axc,1,DMCC8760894,pro_axc_run1_DMCC8760894,AX,1600,A,X,white,center,1,2,550,1,1,709,1,2,1,549142,553942,554651,549692,162126,40,387.016,387.566,391.816,392.525,28.409,260.018,491.614,231.632,463.228,694.824
1,pro,axc,1,DMCC8760894,pro_axc_run1_DMCC8760894,BY,4000,P,C,white,center,1,1,370,1,1,556,1,1,1,556342,561142,561698,556712,162126,41,394.216,394.586,399.016,399.572,28.409,260.018,491.614,231.632,463.228,694.824
1,pro,axc,1,DMCC8760894,pro_axc_run1_DMCC8760894,BY,1600,F,D,white,center,1,1,0,0,,369,1,1,0,565942,570741,571110,0,162126,42,403.816,-162.126,408.615,408.984,28.409,260.018,491.614,231.632,463.228,694.824
1,pro,axc,1,DMCC8760894,pro_axc_run1_DMCC8760894,Ang,1600,A,2,white,center,1,,543,1,1,0,1,,1,573141,577941,0,573684,162126,43,411.015,411.558,415.815,-162.126,28.409,260.018,491.614,231.632,463.228,694.824
1,pro,axc,1,DMCC8760894,pro_axc_run1_DMCC8760894,AX,4000,A,X,white,center,1,2,468,1,1,541,0,1,0,580341,585141,585682,580809,162126,44,418.215,418.683,423.015,423.556,28.409,260.018,491.614,231.632,463.228,694.824
1,pro,axc,1,DMCC8760894,pro_axc_run1_DMCC8760894,Bng,4000,H,7,white,center,1,,0,0,,0,1,,0,589941,594741,0,0,162126,45,427.815,-162.126,432.615,-162.126,28.409,260.018,491.614,231.632,463.228,694.824
1,pro,axc,1,DMCC8760894,pro_axc_run1_DMCC8760894,BY,2800,H,F,white,center,1,1,507,1,1,502,1,1,1,599541,604341,604843,600048,162126,46,437.415,437.922,442.215,442.717,28.409,260.018,491.614,231.632,463.228,694.824
1,pro,axc,1,DMCC8760894,pro_axc_run1_DMCC8760894,AX,4000,A,X,white,center,1,2,1022,1,1,452,0,1,0,607941,612741,613193,608963,162126,47,445.815,446.837,450.615,451.067,28.409,260.018,491.614,231.632,463.228,694.824
1,pro,axc,1,DMCC8760894,pro_axc_run1_DMCC8760894,BY,2800,U,T,white,center,1,1,696,1,1,462,1,1,1,617541,622341,622803,618237,162126,48,455.415,456.111,460.215,460.677,28.409,260.018,491.614,231.632,463.228,694.824
1,pro,axc,1,DMCC8760894,pro_axc_run1_DMCC8760894,AX,1600,A,X,white,center,1,2,369,1,1,337,1,2,1,655940,660740,661077,656309,162126,49,493.814,494.183,498.614,498.951,28.409,260.018,491.614,231.632,463.228,694.824
1,pro,axc,1,DMCC8760894,pro_axc_run1_DMCC8760894,AY,2800,A,M,white,center,1,1,327,1,1,513,1,1,1,663140,667940,668453,663467,162126,50,501.014,501.341,505.814,506.327,28.409,260.018,491.614,231.632,463.228,694.824
1,pro,axc,1,DMCC8760894,pro_axc_run1_DMCC8760894,BY,4000,U,F,white,center,1,1,390,1,1,370,1,1,1,671540,676340,676710,671930,162126,51,509.414,509.804,514.214,514.584,28.409,260.018,491.614,231.632,463.228,694.824
1,pro,axc,1,DMCC8760894,pro_axc_run1_DMCC8760894,BY,1600,T,P,white,center,1,1,354,1,1,967,1,1,1,681140,685940,686907,681494,162126,52,519.014,519.368,523.814,524.781,28.409,260.018,491.614,231.632,463.228,694.824
1,pro,axc,1,DMCC8760894,pro_axc_run1_DMCC8760894,BY,4000,T,P,white,center,1,1,1053,1,1,329,1,1,1,688339,693139,693468,689392,162126,53,526.213,527.266,531.013,531.342,28.409,260.018,491.614,231.632,463.228,694.824
1,pro,axc,1,DMCC8760894,pro_axc_run1_DMCC8760894,BX,2800,T,X,white,center,1,1,624,1,1,465,1,1,1,697939,702739,703204,698563,162126,54,535.813,536.437,540.613,541.078,28.409,260.018,491.614,231.632,463.228,694.824
1,pro,axc,1,DMCC8760894,pro_axc_run1_DMCC8760894,Bng,1600,C,3,white,center,1,,0,0,,414,0,1,0,706339,711139,711553,0,162126,55,544.213,-162.126,549.013,549.427,28.409,260.018,491.614,231.632,463.228,694.824
1,pro,axc,1,DMCC8760894,pro_axc_run1_DMCC8760894,AY,2800,A,F,white,center,1,1,469,1,1,536,1,1,1,713539,718339,718875,714008,162126,56,551.413,551.882,556.213,556.749,28.409,260.018,491.614,231.632,463.228,694.824
1,pro,axc,1,DMCC8760894,pro_axc_run1_DMCC8760894,Ang,4000,A,2,white,center,1,,512,1,1,0,1,,1,721939,726739,0,722451,162126,57,559.813,560.325,564.613,-162.126,28.409,260.018,491.614,231.632,463.228,694.824
1,pro,axc,1,DMCC8760894,pro_axc_run1_DMCC8760894,BY,2800,H,C,white,center,1,1,0,0,,460,1,1,0,731539,736339,736799,0,162126,58,569.413,-162.126,574.213,574.673,28.409,260.018,491.614,231.632,463.228,694.824
1,pro,axc,1,DMCC8760894,pro_axc_run1_DMCC8760894,BY,4000,H,F,white,center,1,1,0,0,,391,1,1,0,739939,744738,745129,0,162126,59,577.813,-162.126,582.612,583.003,28.409,260.018,491.614,231.632,463.228,694.824
1,pro,axc,1,DMCC8760894,pro_axc_run1_DMCC8760894,Ang,1600,A,6,white,center,1,,559,1,1,0,1,,1,749538,754338,0,750097,162126,60,587.412,587.971,592.212,-162.126,28.409,260.018,491.614,231.632,463.228,694.824
1,pro,axc,1,DMCC8760894,pro_axc_run1_DMCC8760894,AX,4000,A,X,white,center,1,2,407,1,1,319,1,2,1,756738,761538,761857,757145,162126,61,594.612,595.019,599.412,599.731,28.409,260.018,491.614,231.632,463.228,694.824
1,pro,axc,1,DMCC8760894,pro_axc_run1_DMCC8760894,AX,4000,A,X,white,center,1,2,685,1,1,582,1,2,1,766338,771138,771720,767023,162126,62,604.212,604.897,609.012,609.594,28.409,260.018,491.614,231.632,463.228,694.824
1,pro,axc,1,DMCC8760894,pro_axc_run1_DMCC8760894,Bng,2800,U,6,white,center,1,,804,1,1,0,1,,1,775938,780738,0,776742,162126,63,613.812,614.616,618.612,-162.126,28.409,260.018,491.614,231.632,463.228,694.824
1,pro,axc,1,DMCC8760894,pro_axc_run1_DMCC8760894,AX,1600,A,X,white,center,1,2,659,1,1,268,1,2,1,784338,789138,789406,784997,162126,64,622.212,622.871,627.012,627.28,28.409,260.018,491.614,231.632,463.228,694.824
1,pro,axc,1,DMCC8760894,pro_axc_run1_DMCC8760894,AX,1600,A,X,white,center,1,2,393,1,1,451,1,2,1,791538,796338,796789,791931,162126,65,629.412,629.805,634.212,634.663,28.409,260.018,491.614,231.632,463.228,694.824
1,pro,axc,1,DMCC8760894,pro_axc_run1_DMCC8760894,BY,4000,F,D,white,center,1,1,574,1,1,646,1,1,1,798738,803537,804183,799312,162126,66,636.612,637.186,641.411,642.057,28.409,260.018,491.614,231.632,463.228,694.824
1,pro,axc,1,DMCC8760894,pro_axc_run1_DMCC8760894,AX,2800,A,X,white,center,1,2,0,0,,1147,1,2,0,808337,813137,814284,0,162126,67,646.211,-162.126,651.011,652.158,28.409,260.018,491.614,231.632,463.228,694.824
1,pro,axc,1,DMCC8760894,pro_axc_run1_DMCC8760894,AX,1600,A,X,white,center,1,2,384,1,1,593,1,2,1,816737,821537,822130,817121,162126,68,654.611,654.995,659.411,660.004,28.409,260.018,491.614,231.632,463.228,694.824
1,pro,axc,1,DMCC8760894,pro_axc_run1_DMCC8760894,AX,2800,A,X,white,center,1,2,439,1,1,373,1,2,1,823937,828737,829110,824376,162126,69,661.811,662.25,666.611,666.984,28.409,260.018,491.614,231.632,463.228,694.824
1,pro,axc,1,DMCC8760894,pro_axc_run1_DMCC8760894,BX,4000,N,X,white,center,1,1,0,0,,795,1,1,0,832337,837137,837932,0,162126,70,670.211,-162.126,675.011,675.806,28.409,260.018,491.614,231.632,463.228,694.824
1,pro,axc,1,DMCC8760894,pro_axc_run1_DMCC8760894,BY,2800,U,F,white,center,1,1,520,1,1,598,1,1,1,841937,846737,847335,842457,162126,71,679.811,680.331,684.611,685.209,28.409,260.018,491.614,231.632,463.228,694.824
1,pro,axc,1,DMCC8760894,pro_axc_run1_DMCC8760894,BY,1600,C,N,white,center,1,1,0,0,,533,1,1,0,850337,855137,855670,0,162126,72,688.211,-162.126,693.011,693.544,28.409,260.018,491.614,231.632,463.228,694.824
1,pro,axc,2,DMCC8760894,pro_axc_run2_DMCC8760894,AX,1600,A,X,white,center,1,2,401,1,1,282,1,2,1,69475,74274,74556,69876,38862,1,30.613,31.014,35.412,35.694,28.413,260.009,491.618,231.636,463.232,694.828
1,pro,axc,2,DMCC8760894,pro_axc_run2_DMCC8760894,AX,1600,A,X,white,center,1,2,384,1,1,370,1,2,1,76674,81474,81844,77058,38862,2,37.812,38.196,42.612,42.982,28.413,260.009,491.618,231.636,463.232,694.828
1,pro,axc,2,DMCC8760894,pro_axc_run2_DMCC8760894,BY,1600,T,M,white,center,1,1,483,1,1,370,1,1,1,83874,88674,89044,84357,38862,3,45.012,45.495,49.812,50.182,28.413,260.009,491.618,231.636,463.232,694.828
1,pro,axc,2,DMCC8760894,pro_axc_run2_DMCC8760894,AX,4000,A,X,white,center,1,2,474,1,1,380,1,2,1,91074,95874,96254,91548,38862,4,52.212,52.686,57.012,57.392,28.413,260.009,491.618,231.636,463.232,694.828
1,pro,axc,2,DMCC8760894,pro_axc_run2_DMCC8760894,Ang,2800,A,3,white,center,1,,0,0,,0,1,,0,100674,105474,0,0,38862,5,61.812,-38.862,66.612,-38.862,28.413,260.009,491.618,231.636,463.232,694.828
1,pro,axc,2,DMCC8760894,pro_axc_run2_DMCC8760894,AX,2800,A,X,white,center,1,2,392,1,1,363,1,2,1,109074,113874,114237,109466,38862,6,70.212,70.604,75.012,75.375,28.413,260.009,491.618,231.636,463.232,694.828
1,pro,axc,2,DMCC8760894,pro_axc_run2_DMCC8760894,BY,4000,H,U,white,center,1,1,540,1,1,390,1,1,1,117474,122274,122664,118014,38862,7,78.612,79.152,83.412,83.802,28.413,260.009,491.618,231.636,463.232,694.828
1,pro,axc,2,DMCC8760894,pro_axc_run2_DMCC8760894,BX,4000,F,X,white,center,1,1,498,1,1,535,1,1,1,127074,131873,132408,127572,38862,8,88.212,88.71,93.011,93.546,28.413,260.009,491.618,231.636,463.232,694.828
1,pro,axc,2,DMCC8760894,pro_axc_run2_DMCC8760894,AY,1600,A,N,white,center,1,1,427,1,1,453,1,1,1,136673,141473,141926,137100,38862,9,97.811,98.238,102.611,103.064,28.413,260.009,491.618,231.636,463.232,694.828
1,pro,axc,2,DMCC8760894,pro_axc_run2_DMCC8760894,BY,2800,M,P,white,center,1,1,396,1,1,400,1,1,1,143873,148673,149073,144269,38862,10,105.011,105.407,109.811,110.211,28.413,260.009,491.618,231.636,463.232,694.828
1,pro,axc,2,DMCC8760894,pro_axc_run2_DMCC8760894,AX,2800,A,X,white,center,1,2,400,1,1,304,1,2,1,152273,157073,157377,152673,38862,11,113.411,113.811,118.211,118.515,28.413,260.009,491.618,231.636,463.232,694.828
1,pro,axc,2,DMCC8760894,pro_axc_run2_DMCC8760894,AX,4000,A,X,white,center,1,2,365,1,1,472,1,2,1,160673,165473,165945,161038,38862,12,121.811,122.176,126.611,127.083,28.413,260.009,491.618,231.636,463.232,694.828
1,pro,axc,2,DMCC8760894,pro_axc_run2_DMCC8760894,BY,4000,M,F,white,center,1,1,1238,1,1,388,1,1,1,170273,175073,175461,171511,38862,13,131.411,132.649,136.211,136.599,28.413,260.009,491.618,231.636,463.232,694.828
1,pro,axc,2,DMCC8760894,pro_axc_run2_DMCC8760894,Bng,4000,H,8,white,center,1,,348,1,1,0,1,,1,179873,184673,0,180221,38862,14,141.011,141.359,145.811,-38.862,28.413,260.009,491.618,231.636,463.232,694.828
1,pro,axc,2,DMCC8760894,pro_axc_run2_DMCC8760894,BY,4000,D,T,white,center,1,1,446,1,1,432,1,1,1,189472,194272,194704,189918,38862,15,150.61,151.056,155.41,155.842,28.413,260.009,491.618,231.636,463.232,694.828
1,pro,axc,2,DMCC8760894,pro_axc_run2_DMCC8760894,AX,1600,A,X,white,center,1,2,453,1,1,409,1,2,1,199072,203872,204281,199525,38862,16,160.21,160.663,165.01,165.419,28.413,260.009,491.618,231.636,463.232,694.828
1,pro,axc,2,DMCC8760894,pro_axc_run2_DMCC8760894,BX,1600,U,X,white,center,1,1,532,1,1,648,1,1,1,206272,211072,211720,206804,38862,17,167.41,167.942,172.21,172.858,28.413,260.009,491.618,231.636,463.232,694.828
1,pro,axc,2,DMCC8760894,pro_axc_run2_DMCC8760894,Ang,2800,A,7,white,center,1,,400,1,1,210,0,2,0,213472,218272,218482,213872,38862,18,174.61,175.01,179.41,179.62,28.413,260.009,491.618,231.636,463.232,694.828
1,pro,axc,2,DMCC8760894,pro_axc_run2_DMCC8760894,AX,2800,A,X,white,center,1,2,356,1,1,402,1,2,1,221872,226672,227074,222228,38862,19,183.01,183.366,187.81,188.212,28.413,260.009,491.618,231.636,463.232,694.828
1,pro,axc,2,DMCC8760894,pro_axc_run2_DMCC8760894,Bng,2800,T,6,white,center,1,,379,1,1,0,1,,1,230272,235072,0,230651,38862,20,191.41,191.789,196.21,-38.862,28.413,260.009,491.618,231.636,463.232,694.828
1,pro,axc,2,DMCC8760894,pro_axc_run2_DMCC8760894,BY,4000,C,M,white,center,1,1,481,1,1,0,0,,0,238672,243472,0,239153,38862,21,199.81,200.291,204.61,-38.862,28.413,260.009,491.618,231.636,463.232,694.828
1,pro,axc,2,DMCC8760894,pro_axc_run2_DMCC8760894,BY,1600,H,T,white,center,1,1,361,1,1,412,1,1,1,248271,253071,253483,248632,38862,22,209.409,209.77,214.209,214.621,28.413,260.009,491.618,231.636,463.232,694.828
1,pro,axc,2,DMCC8760894,pro_axc_run2_DMCC8760894,BY,2800,N,P,white,center,1,1,301,1,1,701,1,1,1,255471,260271,260972,255772,38862,23,216.609,216.91,221.409,222.11,28.413,260.009,491.618,231.636,463.232,694.828
1,pro,axc,2,DMCC8760894,pro_axc_run2_DMCC8760894,AY,1600,A,H,white,center,1,1,449,1,1,525,1,1,1,263871,268671,269196,264320,38862,24,225.009,225.458,229.809,230.334,28.413,260.009,491.618,231.636,463.232,694.828
1,pro,axc,2,DMCC8760894,pro_axc_run2_DMCC8760894,BY,4000,U,D,white,center,1,1,347,1,1,320,1,1,1,301071,305870,306190,301418,38862,25,262.209,262.556,267.008,267.328,28.413,260.009,491.618,231.636,463.232,694.828
1,pro,axc,2,DMCC8760894,pro_axc_run2_DMCC8760894,BY,2800,T,N,white,center,1,1,396,1,1,693,1,1,1,310670,315470,316163,311066,38862,26,271.808,272.204,276.608,277.301,28.413,260.009,491.618,231.636,463.232,694.828
1,pro,axc,2,DMCC8760894,pro_axc_run2_DMCC8760894,AX,1600,A,X,white,center,1,2,664,1,1,305,1,2,1,319070,323870,324175,319734,38862,27,280.208,280.872,285.008,285.313,28.413,260.009,491.618,231.636,463.232,694.828
1,pro,axc,2,DMCC8760894,pro_axc_run2_DMCC8760894,AY,2800,A,D,white,center,1,1,246,1,1,455,1,1,1,326270,331070,331525,326516,38862,28,287.408,287.654,292.208,292.663,28.413,260.009,491.618,231.636,463.232,694.828
1,pro,axc,2,DMCC8760894,pro_axc_run2_DMCC8760894,AX,2800,A,X,white,center,1,2,371,1,1,219,1,2,1,334670,339470,339689,335041,38862,29,295.808,296.179,300.608,300.827,28.413,260.009,491.618,231.636,463.232,694.828
1,pro,axc,2,DMCC8760894,pro_axc_run2_DMCC8760894,BX,4000,P,X,white,center,1,1,338,1,1,346,1,1,1,343070,347870,348216,343408,38862,30,304.208,304.546,309.008,309.354,28.413,260.009,491.618,231.636,463.232,694.828
1,pro,axc,2,DMCC8760894,pro_axc_run2_DMCC8760894,AX,4000,A,X,white,center,1,2,420,1,1,351,1,2,1,352670,357470,357821,353090,38862,31,313.808,314.228,318.608,318.959,28.413,260.009,491.618,231.636,463.232,694.828
1,pro,axc,2,DMCC8760894,pro_axc_run2_DMCC8760894,BY,1600,C,D,white,center,1,1,432,1,1,378,1,1,1,362269,367069,367447,362701,38862,32,323.407,323.839,328.207,328.585,28.413,260.009,491.618,231.636,463.232,694.828
1,pro,axc,2,DMCC8760894,pro_axc_run2_DMCC8760894,BX,4000,M,X,white,center,1,1,414,1,1,652,1,1,1,369469,374269,374921,369883,38862,33,330.607,331.021,335.407,336.059,28.413,260.009,491.618,231.636,463.232,694.828
1,pro,axc,2,DMCC8760894,pro_axc_run2_DMCC8760894,BY,1600,N,U,white,center,1,1,404,1,1,346,1,1,1,379069,383869,384215,379473,38862,34,340.207,340.611,345.007,345.353,28.413,260.009,491.618,231.636,463.232,694.828
1,pro,axc,2,DMCC8760894,pro_axc_run2_DMCC8760894,BY,1600,F,M,white,center,1,1,467,1,1,261,1,1,1,386269,391069,391330,386736,38862,35,347.407,347.874,352.207,352.468,28.413,260.009,491.618,231.636,463.232,694.828
1,pro,axc,2,DMCC8760894,pro_axc_run2_DMCC8760894,AX,2800,A,X,white,center,1,2,310,1,1,317,1,2,1,393469,398269,398586,393779,38862,36,354.607,354.917,359.407,359.724,28.413,260.009,491.618,231.636,463.232,694.828
1,pro,axc,2,DMCC8760894,pro_axc_run2_DMCC8760894,AX,2800,A,X,white,center,1,2,0,0,,524,0,1,0,401869,406669,407193,0,38862,37,363.007,-38.862,367.807,368.331,28.413,260.009,491.618,231.636,463.232,694.828
1,pro,axc,2,DMCC8760894,pro_axc_run2_DMCC8760894,Ang,1600,A,9,white,center,1,,314,1,1,0,1,,1,410269,415069,0,410583,38862,38,371.407,371.721,376.207,-38.862,28.413,260.009,491.618,231.636,463.232,694.828
1,pro,axc,2,DMCC8760894,pro_axc_run2_DMCC8760894,AY,2800,A,T,white,center,1,1,0,0,,416,1,1,0,417468,422268,422684,0,38862,39,378.606,-38.862,383.406,383.822,28.413,260.009,491.618,231.636,463.232,694.828
1,pro,axc,2,DMCC8760894,pro_axc_run2_DMCC8760894,Bng,2800,C,8,white,center,1,,738,1,1,0,1,,1,425868,430668,0,426606,38862,40,387.006,387.744,391.806,-38.862,28.413,260.009,491.618,231.636,463.232,694.828
1,pro,axc,2,DMCC8760894,pro_axc_run2_DMCC8760894,BY,1600,P,H,white,center,1,1,402,1,1,438,1,1,1,434268,439068,439506,434670,38862,41,395.406,395.808,400.206,400.644,28.413,260.009,491.618,231.636,463.232,694.828
1,pro,axc,2,DMCC8760894,pro_axc_run2_DMCC8760894,AX,4000,A,X,white,center,1,2,277,1,1,373,1,2,1,441468,446268,446641,441745,38862,42,402.606,402.883,407.406,407.779,28.413,260.009,491.618,231.636,463.232,694.828
1,pro,axc,2,DMCC8760894,pro_axc_run2_DMCC8760894,BY,4000,U,P,white,center,1,1,877,1,1,0,0,,0,451068,455868,0,451945,38862,43,412.206,413.083,417.006,-38.862,28.413,260.009,491.618,231.636,463.232,694.828
1,pro,axc,2,DMCC8760894,pro_axc_run2_DMCC8760894,Bng,4000,U,5,white,center,1,,384,1,1,0,1,,1,460668,465468,0,461052,38862,44,421.806,422.19,426.606,-38.862,28.413,260.009,491.618,231.636,463.232,694.828
1,pro,axc,2,DMCC8760894,pro_axc_run2_DMCC8760894,BY,2800,F,C,white,center,1,1,323,1,1,0,0,,0,470268,475081,0,470591,38862,45,431.406,431.729,436.219,-38.862,28.413,260.009,491.618,231.636,463.232,694.828
1,pro,axc,2,DMCC8760894,pro_axc_run2_DMCC8760894,AX,1600,A,X,white,center,1,2,390,1,1,318,1,2,1,478681,483481,483799,479071,38862,46,439.819,440.209,444.619,444.937,28.413,260.009,491.618,231.636,463.232,694.828
1,pro,axc,2,DMCC8760894,pro_axc_run2_DMCC8760894,AX,1600,A,X,white,center,1,2,380,1,1,669,1,2,1,485881,490681,491350,486261,38862,47,447.019,447.399,451.819,452.488,28.413,260.009,491.618,231.636,463.232,694.828
1,pro,axc,2,DMCC8760894,pro_axc_run2_DMCC8760894,Ang,4000,A,1,white,center,1,,305,1,1,0,1,,1,493081,497880,0,493386,38862,48,454.219,454.524,459.018,-38.862,28.413,260.009,491.618,231.636,463.232,694.828
1,pro,axc,2,DMCC8760894,pro_axc_run2_DMCC8760894,BY,4000,P,M,white,center,1,1,441,1,1,336,1,1,1,532680,537480,537816,533121,38862,49,493.818,494.259,498.618,498.954,28.413,260.009,491.618,231.636,463.232,694.828
1,pro,axc,2,DMCC8760894,pro_axc_run2_DMCC8760894,BY,2800,D,N,white,center,1,1,412,1,1,444,1,1,1,542280,547080,547524,542692,38862,50,503.418,503.83,508.218,508.662,28.413,260.009,491.618,231.636,463.232,694.828
1,pro,axc,2,DMCC8760894,pro_axc_run2_DMCC8760894,BY,1600,U,D,white,center,1,1,295,1,1,482,1,1,1,550680,555479,555961,550975,38862,51,511.818,512.113,516.617,517.099,28.413,260.009,491.618,231.636,463.232,694.828
1,pro,axc,2,DMCC8760894,pro_axc_run2_DMCC8760894,AX,2800,A,X,white,center,1,2,393,1,1,324,1,2,1,557879,562679,563003,558272,38862,52,519.017,519.41,523.817,524.141,28.413,260.009,491.618,231.636,463.232,694.828
1,pro,axc,2,DMCC8760894,pro_axc_run2_DMCC8760894,Ang,1600,A,5,white,center,1,,0,0,,0,1,,0,566279,571079,0,0,38862,53,527.417,-38.862,532.217,-38.862,28.413,260.009,491.618,231.636,463.232,694.828
1,pro,axc,2,DMCC8760894,pro_axc_run2_DMCC8760894,AX,2800,A,X,white,center,1,2,331,1,1,539,1,2,1,573479,578279,578818,573810,38862,54,534.617,534.948,539.417,539.956,28.413,260.009,491.618,231.636,463.232,694.828
1,pro,axc,2,DMCC8760894,pro_axc_run2_DMCC8760894,AY,2800,A,N,white,center,1,1,303,1,1,615,1,1,1,581879,586679,587294,582182,38862,55,543.017,543.32,547.817,548.432,28.413,260.009,491.618,231.636,463.232,694.828
1,pro,axc,2,DMCC8760894,pro_axc_run2_DMCC8760894,AX,1600,A,X,white,center,1,2,506,1,1,376,1,2,1,590279,595079,595455,590785,38862,56,551.417,551.923,556.217,556.593,28.413,260.009,491.618,231.636,463.232,694.828
1,pro,axc,2,DMCC8760894,pro_axc_run2_DMCC8760894,AX,4000,A,X,white,center,1,2,0,0,,718,0,1,0,597479,602279,602997,0,38862,57,558.617,-38.862,563.417,564.135,28.413,260.009,491.618,231.636,463.232,694.828
1,pro,axc,2,DMCC8760894,pro_axc_run2_DMCC8760894,AX,4000,A,X,white,center,1,2,346,1,1,304,1,2,1,607079,611878,612182,607425,38862,58,568.217,568.563,573.016,573.32,28.413,260.009,491.618,231.636,463.232,694.828
1,pro,axc,2,DMCC8760894,pro_axc_run2_DMCC8760894,AX,1600,A,X,white,center,1,2,559,1,1,403,1,2,1,616678,621478,621881,617237,38862,59,577.816,578.375,582.616,583.019,28.413,260.009,491.618,231.636,463.232,694.828
1,pro,axc,2,DMCC8760894,pro_axc_run2_DMCC8760894,BY,4000,M,P,white,center,1,1,0,0,,483,1,1,0,623878,628678,629161,0,38862,60,585.016,-38.862,589.816,590.299,28.413,260.009,491.618,231.636,463.232,694.828
1,pro,axc,2,DMCC8760894,pro_axc_run2_DMCC8760894,Ang,1600,A,7,white,center,1,,313,1,1,0,1,,1,633478,638278,0,633791,38862,61,594.616,594.929,599.416,-38.862,28.413,260.009,491.618,231.636,463.232,694.828
1,pro,axc,2,DMCC8760894,pro_axc_run2_DMCC8760894,AX,1600,A,X,white,center,1,2,382,1,1,360,0,1,0,640678,645478,645838,641060,38862,62,601.816,602.198,606.616,606.976,28.413,260.009,491.618,231.636,463.232,694.828
1,pro,axc,2,DMCC8760894,pro_axc_run2_DMCC8760894,BY,4000,U,P,white,center,1,1,374,1,1,341,1,1,1,647878,652678,653019,648252,38862,63,609.016,609.39,613.816,614.157,28.413,260.009,491.618,231.636,463.232,694.828
1,pro,axc,2,DMCC8760894,pro_axc_run2_DMCC8760894,BY,4000,T,N,white,center,1,1,0,0,,468,1,1,0,657478,662278,662746,0,38862,64,618.616,-38.862,623.416,623.884,28.413,260.009,491.618,231.636,463.232,694.828
1,pro,axc,2,DMCC8760894,pro_axc_run2_DMCC8760894,BX,4000,C,X,white,center,1,1,372,1,1,668,1,1,1,667077,671877,672545,667449,38862,65,628.215,628.587,633.015,633.683,28.413,260.009,491.618,231.636,463.232,694.828
1,pro,axc,2,DMCC8760894,pro_axc_run2_DMCC8760894,Bng,1600,M,4,white,center,1,,469,1,1,0,1,,1,676677,681477,0,677146,38862,66,637.815,638.284,642.615,-38.862,28.413,260.009,491.618,231.636,463.232,694.828
1,pro,axc,2,DMCC8760894,pro_axc_run2_DMCC8760894,Bng,2800,N,5,white,center,1,,407,1,1,0,1,,1,683877,688677,0,684284,38862,67,645.015,645.422,649.815,-38.862,28.413,260.009,491.618,231.636,463.232,694.828
1,pro,axc,2,DMCC8760894,pro_axc_run2_DMCC8760894,BX,2800,U,X,white,center,1,1,563,1,1,391,1,1,1,692277,697077,697468,692840,38862,68,653.415,653.978,658.215,658.606,28.413,260.009,491.618,231.636,463.232,694.828
1,pro,axc,2,DMCC8760894,pro_axc_run2_DMCC8760894,BY,1600,P,H,white,center,1,1,479,1,1,411,1,1,1,700677,705477,705888,701156,38862,69,661.815,662.294,666.615,667.026,28.413,260.009,491.618,231.636,463.232,694.828
1,pro,axc,2,DMCC8760894,pro_axc_run2_DMCC8760894,BY,2800,C,D,white,center,1,1,297,1,1,436,1,1,1,707877,712677,713113,708174,38862,70,669.015,669.312,673.815,674.251,28.413,260.009,491.618,231.636,463.232,694.828
1,pro,axc,2,DMCC8760894,pro_axc_run2_DMCC8760894,AY,4000,A,T,white,center,1,1,414,1,1,539,1,1,1,716277,721077,721616,716691,38862,71,677.415,677.829,682.215,682.754,28.413,260.009,491.618,231.636,463.232,694.828
1,pro,axc,2,DMCC8760894,pro_axc_run2_DMCC8760894,AX,2800,A,X,white,center,1,2,0,0,,591,0,1,0,725876,730676,731267,0,38862,72,687.014,-38.862,691.814,692.405,28.413,260.009,491.618,231.636,463.232,694.828
1,rea,axc,1,DMCC8760894,rea_axc_run1_DMCC8760894,AX,2800,A,X,white,Above,1,2,566,1,1,295,1,2,1,141447,146247,146542,142013,110834,1,30.613,31.179,35.413,35.708,28.413,260.011,491.609,231.625,463.223,694.821
1,rea,axc,1,DMCC8760894,rea_axc_run1_DMCC8760894,AX,2800,A,X,white,Above,1,2,297,1,1,311,1,2,1,149847,154647,154958,150144,110834,2,39.013,39.31,43.813,44.124,28.413,260.011,491.609,231.625,463.223,694.821
1,rea,axc,1,DMCC8760894,rea_axc_run1_DMCC8760894,BX,4000,C,X,red,Below,1,1,602,1,1,493,1,1,1,158247,163047,163540,158849,110834,3,47.413,48.015,52.213,52.706,28.413,260.011,491.609,231.625,463.223,694.821
1,rea,axc,1,DMCC8760894,rea_axc_run1_DMCC8760894,AY,1600,A,N,red,Below,1,1,329,1,1,622,1,1,1,167847,172647,173269,168176,110834,4,57.013,57.342,61.813,62.435,28.413,260.011,491.609,231.625,463.223,694.821
1,rea,axc,1,DMCC8760894,rea_axc_run1_DMCC8760894,BY,4000,D,T,white,Above,1,1,335,1,1,401,1,1,1,175047,179847,180248,175382,110834,5,64.213,64.548,69.013,69.414,28.413,260.011,491.609,231.625,463.223,694.821
1,rea,axc,1,DMCC8760894,rea_axc_run1_DMCC8760894,Bng,4000,U,6,red,Below,1,,335,1,1,0,1,,1,184647,189447,0,184982,110834,6,73.813,74.148,78.613,-110.834,28.413,260.011,491.609,231.625,463.223,694.821
1,rea,axc,1,DMCC8760894,rea_axc_run1_DMCC8760894,AX,2800,A,X,white,Above,1,2,390,1,1,434,1,2,1,194246,199046,199480,194636,110834,7,83.412,83.802,88.212,88.646,28.413,260.011,491.609,231.625,463.223,694.821
1,rea,axc,1,DMCC8760894,rea_axc_run1_DMCC8760894,AX,1600,A,X,white,Above,1,2,432,1,1,450,1,2,1,202646,207446,207896,203078,110834,8,91.812,92.244,96.612,97.062,28.413,260.011,491.609,231.625,463.223,694.821
1,rea,axc,1,DMCC8760894,rea_axc_run1_DMCC8760894,Bng,1600,D,3,red,Below,1,,0,0,,0,1,,0,209846,214646,0,0,110834,9,99.012,-110.834,103.812,-110.834,28.413,260.011,491.609,231.625,463.223,694.821
1,rea,axc,1,DMCC8760894,rea_axc_run1_DMCC8760894,AY,2800,A,T,red,Below,1,1,396,1,1,443,1,1,1,217046,221846,222289,217442,110834,10,106.212,106.608,111.012,111.455,28.413,260.011,491.609,231.625,463.223,694.821
1,rea,axc,1,DMCC8760894,rea_axc_run1_DMCC8760894,BY,1600,M,F,white,Above,1,1,507,1,1,553,1,1,1,225446,230246,230799,225953,110834,11,114.612,115.119,119.412,119.965,28.413,260.011,491.609,231.625,463.223,694.821
1,rea,axc,1,DMCC8760894,rea_axc_run1_DMCC8760894,BY,4000,U,D,white,Above,1,1,0,0,,535,1,1,0,232646,237446,237981,0,110834,12,121.812,-110.834,126.612,127.147,28.413,260.011,491.609,231.625,463.223,694.821
1,rea,axc,1,DMCC8760894,rea_axc_run1_DMCC8760894,Ang,4000,A,2,red,Below,1,,1352,1,1,0,1,,1,242246,247046,0,243598,110834,13,131.412,132.764,136.212,-110.834,28.413,260.011,491.609,231.625,463.223,694.821
1,rea,axc,1,DMCC8760894,rea_axc_run1_DMCC8760894,AX,1600,A,X,white,Above,1,2,448,1,1,435,1,2,1,251846,256646,257081,252294,110834,14,141.012,141.46,145.812,146.247,28.413,260.011,491.609,231.625,463.223,694.821
1,rea,axc,1,DMCC8760894,rea_axc_run1_DMCC8760894,Ang,1600,A,4,red,Below,1,,0,0,,0,1,,0,259046,263846,0,0,110834,15,148.212,-110.834,153.012,-110.834,28.413,260.011,491.609,231.625,463.223,694.821
1,rea,axc,1,DMCC8760894,rea_axc_run1_DMCC8760894,BX,2800,P,X,red,Below,1,1,902,1,1,424,1,1,1,266246,271046,271470,267148,110834,16,155.412,156.314,160.212,160.636,28.413,260.011,491.609,231.625,463.223,694.821
1,rea,axc,1,DMCC8760894,rea_axc_run1_DMCC8760894,AX,1600,A,X,white,Above,1,2,528,1,1,432,1,2,1,274646,279446,279878,275174,110834,17,163.812,164.34,168.612,169.044,28.413,260.011,491.609,231.625,463.223,694.821
1,rea,axc,1,DMCC8760894,rea_axc_run1_DMCC8760894,BY,2800,P,M,white,Above,1,1,0,0,,590,1,1,0,281846,286646,287236,0,110834,18,171.012,-110.834,175.812,176.402,28.413,260.011,491.609,231.625,463.223,694.821
1,rea,axc,1,DMCC8760894,rea_axc_run1_DMCC8760894,BY,2800,D,N,white,Above,1,1,738,1,1,519,1,1,1,290246,295046,295565,290984,110834,19,179.412,180.15,184.212,184.731,28.413,260.011,491.609,231.625,463.223,694.821
1,rea,axc,1,DMCC8760894,rea_axc_run1_DMCC8760894,AX,4000,A,X,white,Above,1,2,0,0,,0,0,,0,298646,303446,0,0,110834,20,187.812,-110.834,192.612,-110.834,28.413,260.011,491.609,231.625,463.223,694.821
1,rea,axc,1,DMCC8760894,rea_axc_run1_DMCC8760894,BY,4000,P,H,white,Above,1,1,386,1,1,0,0,,0,308245,313045,0,308631,110834,21,197.411,197.797,202.211,-110.834,28.413,260.011,491.609,231.625,463.223,694.821
1,rea,axc,1,DMCC8760894,rea_axc_run1_DMCC8760894,AX,2800,A,X,white,Above,1,2,338,1,1,361,1,2,1,317845,322645,323006,318183,110834,22,207.011,207.349,211.811,212.172,28.413,260.011,491.609,231.625,463.223,694.821
1,rea,axc,1,DMCC8760894,rea_axc_run1_DMCC8760894,BY,1600,N,P,white,Above,1,1,335,1,1,432,1,1,1,326245,331045,331477,326580,110834,23,215.411,215.746,220.211,220.643,28.413,260.011,491.609,231.625,463.223,694.821
1,rea,axc,1,DMCC8760894,rea_axc_run1_DMCC8760894,BY,4000,H,U,white,Above,1,1,0,0,,481,1,1,0,333445,338245,338726,0,110834,24,222.611,-110.834,227.411,227.892,28.413,260.011,491.609,231.625,463.223,694.821
1,rea,axc,1,DMCC8760894,rea_axc_run1_DMCC8760894,AX,1600,A,X,white,Above,1,2,0,0,,624,0,1,0,373045,377845,378469,0,110834,25,262.211,-110.834,267.011,267.635,28.413,260.011,491.609,231.625,463.223,694.821
1,rea,axc,1,DMCC8760894,rea_axc_run1_DMCC8760894,BY,4000,C,M,white,Above,1,1,403,1,1,505,1,1,1,380245,385045,385550,380648,110834,26,269.411,269.814,274.211,274.716,28.413,260.011,491.609,231.625,463.223,694.821
1,rea,axc,1,DMCC8760894,rea_axc_run1_DMCC8760894,BX,2800,F,X,red,Below,1,1,497,1,1,470,1,1,1,389845,394645,395115,390342,110834,27,279.011,279.508,283.811,284.281,28.413,260.011,491.609,231.625,463.223,694.821
1,rea,axc,1,DMCC8760894,rea_axc_run1_DMCC8760894,AY,2800,A,D,red,Below,1,1,323,1,1,431,1,1,1,398245,403045,403476,398568,110834,28,287.411,287.734,292.211,292.642,28.413,260.011,491.609,231.625,463.223,694.821
1,rea,axc,1,DMCC8760894,rea_axc_run1_DMCC8760894,AX,4000,A,X,white,Above,1,2,336,1,1,454,0,1,0,406645,411445,411899,406981,110834,29,295.811,296.147,300.611,301.065,28.413,260.011,491.609,231.625,463.223,694.821
1,rea,axc,1,DMCC8760894,rea_axc_run1_DMCC8760894,BY,4000,N,U,white,Above,1,1,386,1,1,598,1,1,1,416245,421045,421643,416631,110834,30,305.411,305.797,310.211,310.809,28.413,260.011,491.609,231.625,463.223,694.821
1,rea,axc,1,DMCC8760894,rea_axc_run1_DMCC8760894,BY,2800,C,D,white,Above,1,1,335,1,1,376,1,1,1,425844,430644,431020,426179,110834,31,315.01,315.345,319.81,320.186,28.413,260.011,491.609,231.625,463.223,694.821
1,rea,axc,1,DMCC8760894,rea_axc_run1_DMCC8760894,AX,1600,A,X,white,Above,1,2,513,1,1,391,1,2,1,434244,439044,439435,434757,110834,32,323.41,323.923,328.21,328.601,28.413,260.011,491.609,231.625,463.223,694.821
1,rea,axc,1,DMCC8760894,rea_axc_run1_DMCC8760894,BY,1600,F,C,white,Above,1,1,0,0,,537,1,1,0,441444,446244,446781,0,110834,33,330.61,-110.834,335.41,335.947,28.413,260.011,491.609,231.625,463.223,694.821
1,rea,axc,1,DMCC8760894,rea_axc_run1_DMCC8760894,AY,4000,A,H,red,Below,1,1,456,1,1,611,1,1,1,448644,453444,454055,449100,110834,34,337.81,338.266,342.61,343.221,28.413,260.011,491.609,231.625,463.223,694.821
1,rea,axc,1,DMCC8760894,rea_axc_run1_DMCC8760894,AX,2800,A,X,white,Above,1,2,440,1,1,1022,1,2,1,458244,463044,464066,458684,110834,35,347.41,347.85,352.21,353.232,28.413,260.011,491.609,231.625,463.223,694.821
1,rea,axc,1,DMCC8760894,rea_axc_run1_DMCC8760894,AX,1600,A,X,white,Above,1,2,484,1,1,808,0,1,0,466644,471444,472252,467128,110834,36,355.81,356.294,360.61,361.418,28.413,260.011,491.609,231.625,463.223,694.821
1,rea,axc,1,DMCC8760894,rea_axc_run1_DMCC8760894,AX,2800,A,X,white,Above,1,2,554,1,1,757,1,2,1,473844,478644,479401,474398,110834,37,363.01,363.564,367.81,368.567,28.413,260.011,491.609,231.625,463.223,694.821
1,rea,axc,1,DMCC8760894,rea_axc_run1_DMCC8760894,BY,1600,M,P,white,Above,1,1,0,0,,784,1,1,0,482244,487044,487828,0,110834,38,371.41,-110.834,376.21,376.994,28.413,260.011,491.609,231.625,463.223,694.821
1,rea,axc,1,DMCC8760894,rea_axc_run1_DMCC8760894,Bng,2800,T,8,red,Below,1,,0,0,,0,1,,0,489444,494244,0,0,110834,39,378.61,-110.834,383.41,-110.834,28.413,260.011,491.609,231.625,463.223,694.821
1,rea,axc,1,DMCC8760894,rea_axc_run1_DMCC8760894,BX,1600,U,X,red,Below,1,1,592,1,1,468,1,1,1,497844,502644,503112,498436,110834,40,387.01,387.602,391.81,392.278,28.413,260.011,491.609,231.625,463.223,694.821
1,rea,axc,1,DMCC8760894,rea_axc_run1_DMCC8760894,AX,4000,A,X,white,Above,1,2,730,1,1,578,1,2,1,505044,509844,510422,505774,110834,41,394.21,394.94,399.01,399.588,28.413,260.011,491.609,231.625,463.223,694.821
1,rea,axc,1,DMCC8760894,rea_axc_run1_DMCC8760894,BY,1600,F,M,white,Above,1,1,465,1,1,652,1,1,1,514644,519444,520096,515109,110834,42,403.81,404.275,408.61,409.262,28.413,260.011,491.609,231.625,463.223,694.821
1,rea,axc,1,DMCC8760894,rea_axc_run1_DMCC8760894,Ang,2800,A,6,red,Below,1,,587,1,1,0,1,,1,521844,526644,0,522431,110834,43,411.01,411.597,415.81,-110.834,28.413,260.011,491.609,231.625,463.223,694.821
1,rea,axc,1,DMCC8760894,rea_axc_run1_DMCC8760894,Ang,4000,A,8,red,Below,1,,625,1,1,0,1,,1,530244,535044,0,530869,110834,44,419.41,420.035,424.21,-110.834,28.413,260.011,491.609,231.625,463.223,694.821
1,rea,axc,1,DMCC8760894,rea_axc_run1_DMCC8760894,BY,1600,T,M,white,Above,1,1,833,1,1,599,1,1,1,539843,544643,545242,540676,110834,45,429.009,429.842,433.809,434.408,28.413,260.011,491.609,231.625,463.223,694.821
1,rea,axc,1,DMCC8760894,rea_axc_run1_DMCC8760894,Bng,2800,D,1,red,Below,1,,0,0,,0,1,,0,547043,551843,0,0,110834,46,436.209,-110.834,441.009,-110.834,28.413,260.011,491.609,231.625,463.223,694.821
1,rea,axc,1,DMCC8760894,rea_axc_run1_DMCC8760894,BY,4000,H,T,white,Above,1,1,636,1,1,0,0,,0,555443,560243,0,556079,110834,47,444.609,445.245,449.409,-110.834,28.413,260.011,491.609,231.625,463.223,694.821
1,rea,axc,1,DMCC8760894,rea_axc_run1_DMCC8760894,AX,4000,A,X,white,Above,1,2,569,1,1,0,0,,0,565043,569843,0,565612,110834,48,454.209,454.778,459.009,-110.834,28.413,260.011,491.609,231.625,463.223,694.821
1,rea,axc,1,DMCC8760894,rea_axc_run1_DMCC8760894,BY,2800,U,P,white,Above,1,1,0,0,,429,1,1,0,604643,609443,609872,0,110834,49,493.809,-110.834,498.609,499.038,28.413,260.011,491.609,231.625,463.223,694.821
1,rea,axc,1,DMCC8760894,rea_axc_run1_DMCC8760894,Ang,2800,A,8,red,Below,1,,419,1,1,0,1,,1,613043,617843,0,613462,110834,50,502.209,502.628,507.009,-110.834,28.413,260.011,491.609,231.625,463.223,694.821
1,rea,axc,1,DMCC8760894,rea_axc_run1_DMCC8760894,AX,2800,A,X,white,Above,1,2,353,1,1,746,0,1,0,621443,626243,626989,621796,110834,51,510.609,510.962,515.409,516.155,28.413,260.011,491.609,231.625,463.223,694.821
1,rea,axc,1,DMCC8760894,rea_axc_run1_DMCC8760894,Bng,1600,C,7,red,Below,1,,632,1,1,0,1,,1,629843,634643,0,630475,110834,52,519.009,519.641,523.809,-110.834,28.413,260.011,491.609,231.625,463.223,694.821
1,rea,axc,1,DMCC8760894,rea_axc_run1_DMCC8760894,AX,1600,A,X,white,Above,1,2,515,1,1,504,1,2,1,637043,641843,642347,637558,110834,53,526.209,526.724,531.009,531.513,28.413,260.011,491.609,231.625,463.223,694.821
1,rea,axc,1,DMCC8760894,rea_axc_run1_DMCC8760894,BY,1600,T,N,white,Above,1,1,787,1,1,473,1,1,1,644243,649043,649516,645030,110834,54,533.409,534.196,538.209,538.682,28.413,260.011,491.609,231.625,463.223,694.821
1,rea,axc,1,DMCC8760894,rea_axc_run1_DMCC8760894,BY,2800,C,M,white,Above,1,1,398,1,1,504,1,1,1,651443,656242,656746,651841,110834,55,540.609,541.007,545.408,545.912,28.413,260.011,491.609,231.625,463.223,694.821
1,rea,axc,1,DMCC8760894,rea_axc_run1_DMCC8760894,AY,4000,A,D,red,Below,1,1,417,1,1,642,1,1,1,659842,664642,665284,660259,110834,56,549.008,549.425,553.808,554.45,28.413,260.011,491.609,231.625,463.223,694.821
1,rea,axc,1,DMCC8760894,rea_axc_run1_DMCC8760894,BY,4000,F,M,white,Above,1,1,579,1,1,433,1,1,1,669442,674242,674675,670021,110834,57,558.608,559.187,563.408,563.841,28.413,260.011,491.609,231.625,463.223,694.821
1,rea,axc,1,DMCC8760894,rea_axc_run1_DMCC8760894,AX,4000,A,X,white,Above,1,2,356,1,1,638,1,2,1,679042,683842,684480,679398,110834,58,568.208,568.564,573.008,573.646,28.413,260.011,491.609,231.625,463.223,694.821
1,rea,axc,1,DMCC8760894,rea_axc_run1_DMCC8760894,AY,1600,A,T,red,Below,1,1,552,1,1,550,1,1,1,688642,693442,693992,689194,110834,59,577.808,578.36,582.608,583.158,28.413,260.011,491.609,231.625,463.223,694.821
1,rea,axc,1,DMCC8760894,rea_axc_run1_DMCC8760894,BY,4000,T,M,white,Above,1,1,0,0,,656,1,1,0,695842,700642,701298,0,110834,60,585.008,-110.834,589.808,590.464,28.413,260.011,491.609,231.625,463.223,694.821
1,rea,axc,1,DMCC8760894,rea_axc_run1_DMCC8760894,AX,2800,A,X,white,Above,1,2,0,0,,0,0,,0,705442,710242,0,0,110834,61,594.608,-110.834,599.408,-110.834,28.413,260.011,491.609,231.625,463.223,694.821
1,rea,axc,1,DMCC8760894,rea_axc_run1_DMCC8760894,AX,1600,A,X,white,Above,1,2,534,1,1,612,1,2,1,713842,718642,719254,714376,110834,62,603.008,603.542,607.808,608.42,28.413,260.011,491.609,231.625,463.223,694.821
1,rea,axc,1,DMCC8760894,rea_axc_run1_DMCC8760894,Ang,1600,A,4,red,Below,1,,591,1,1,0,1,,1,721042,725842,0,721633,110834,63,610.208,610.799,615.008,-110.834,28.413,260.011,491.609,231.625,463.223,694.821
1,rea,axc,1,DMCC8760894,rea_axc_run1_DMCC8760894,Bng,4000,P,2,red,Below,1,,444,1,1,0,1,,1,728242,733042,0,728686,110834,64,617.408,617.852,622.208,-110.834,28.413,260.011,491.609,231.625,463.223,694.821
1,rea,axc,1,DMCC8760894,rea_axc_run1_DMCC8760894,AX,1600,A,X,white,Above,1,2,0,0,,852,0,1,0,737842,742642,743494,0,110834,65,627.008,-110.834,631.808,632.66,28.413,260.011,491.609,231.625,463.223,694.821
1,rea,axc,1,DMCC8760894,rea_axc_run1_DMCC8760894,AX,2800,A,X,white,Above,1,2,0,0,,162,0,1,0,745042,749842,750004,0,110834,66,634.208,-110.834,639.008,639.17,28.413,260.011,491.609,231.625,463.223,694.821
1,rea,axc,1,DMCC8760894,rea_axc_run1_DMCC8760894,BY,2800,N,U,white,Above,1,1,327,1,1,0,0,,0,753442,758242,0,753769,110834,67,642.608,642.935,647.408,-110.834,28.413,260.011,491.609,231.625,463.223,694.821
1,rea,axc,1,DMCC8760894,rea_axc_run1_DMCC8760894,AX,4000,A,X,white,Above,1,2,461,1,1,639,1,2,1,761842,766642,767281,762303,110834,68,651.008,651.469,655.808,656.447,28.413,260.011,491.609,231.625,463.223,694.821
1,rea,axc,1,DMCC8760894,rea_axc_run1_DMCC8760894,BX,4000,M,X,red,Below,1,1,1366,1,1,0,0,,0,771441,776241,0,772807,110834,69,660.607,661.973,665.407,-110.834,28.413,260.011,491.609,231.625,463.223,694.821
1,rea,axc,1,DMCC8760894,rea_axc_run1_DMCC8760894,BY,1600,U,P,white,Above,1,1,0,0,,483,1,1,0,781041,785841,786324,0,110834,70,670.207,-110.834,675.007,675.49,28.413,260.011,491.609,231.625,463.223,694.821
1,rea,axc,1,DMCC8760894,rea_axc_run1_DMCC8760894,BX,4000,M,X,red,Below,1,1,667,1,1,555,1,1,1,788241,793041,793596,788908,110834,71,677.407,678.074,682.207,682.762,28.413,260.011,491.609,231.625,463.223,694.821
1,rea,axc,1,DMCC8760894,rea_axc_run1_DMCC8760894,BY,2800,H,U,white,Above,1,1,0,0,,524,1,1,0,797841,802641,803165,0,110834,72,687.007,-110.834,691.807,692.331,28.413,260.011,491.609,231.625,463.223,694.821
1,rea,axc,2,DMCC8760894,rea_axc_run2_DMCC8760894,Bng,1600,C,6,red,Below,1,,449,1,1,0,1,,1,67208,72007,0,67657,36597,1,30.611,31.06,35.41,-36.597,28.411,260.022,491.62,231.635,463.233,694.831
1,rea,axc,2,DMCC8760894,rea_axc_run2_DMCC8760894,AX,1600,A,X,white,Above,1,2,414,1,1,514,0,1,0,74407,79207,79721,74821,36597,2,37.81,38.224,42.61,43.124,28.411,260.022,491.62,231.635,463.233,694.831
1,rea,axc,2,DMCC8760894,rea_axc_run2_DMCC8760894,AX,4000,A,X,white,Above,1,2,1338,1,1,697,0,1,0,81607,86407,87104,82945,36597,3,45.01,46.348,49.81,50.507,28.411,260.022,491.62,231.635,463.233,694.831
1,rea,axc,2,DMCC8760894,rea_axc_run2_DMCC8760894,AY,4000,A,P,red,Below,1,1,587,1,1,481,1,1,1,91207,96007,96488,91794,36597,4,54.61,55.197,59.41,59.891,28.411,260.022,491.62,231.635,463.233,694.831
1,rea,axc,2,DMCC8760894,rea_axc_run2_DMCC8760894,BY,1600,D,U,white,Above,1,1,535,1,1,466,1,1,1,100807,105607,106073,101342,36597,5,64.21,64.745,69.01,69.476,28.411,260.022,491.62,231.635,463.233,694.831
1,rea,axc,2,DMCC8760894,rea_axc_run2_DMCC8760894,BY,4000,N,H,white,Above,1,1,0,0,,623,1,1,0,108007,112807,113430,0,36597,6,71.41,-36.597,76.21,76.833,28.411,260.022,491.62,231.635,463.233,694.831
1,rea,axc,2,DMCC8760894,rea_axc_run2_DMCC8760894,Ang,2800,A,5,red,Below,1,,363,1,1,0,1,,1,117607,122407,0,117970,36597,7,81.01,81.373,85.81,-36.597,28.411,260.022,491.62,231.635,463.233,694.831
1,rea,axc,2,DMCC8760894,rea_axc_run2_DMCC8760894,AX,2800,A,X,white,Above,1,2,0,0,,865,1,2,0,126007,130807,131672,0,36597,8,89.41,-36.597,94.21,95.075,28.411,260.022,491.62,231.635,463.233,694.831
1,rea,axc,2,DMCC8760894,rea_axc_run2_DMCC8760894,BY,4000,U,F,white,Above,1,1,381,1,1,674,1,1,1,134407,139207,139881,134788,36597,9,97.81,98.191,102.61,103.284,28.411,260.022,491.62,231.635,463.233,694.831
1,rea,axc,2,DMCC8760894,rea_axc_run2_DMCC8760894,BY,2800,C,N,white,Above,1,1,0,0,,0,0,,0,144007,148807,0,0,36597,10,107.41,-36.597,112.21,-36.597,28.411,260.022,491.62,231.635,463.233,694.831
1,rea,axc,2,DMCC8760894,rea_axc_run2_DMCC8760894,AX,2800,A,X,white,Above,1,2,413,1,1,396,1,2,1,152407,157207,157603,152820,36597,11,115.81,116.223,120.61,121.006,28.411,260.022,491.62,231.635,463.233,694.831
1,rea,axc,2,DMCC8760894,rea_axc_run2_DMCC8760894,AX,1600,A,X,white,Above,1,2,359,1,1,394,1,2,1,160807,165607,166001,161166,36597,12,124.21,124.569,129.01,129.404,28.411,260.022,491.62,231.635,463.233,694.831
1,rea,axc,2,DMCC8760894,rea_axc_run2_DMCC8760894,Bng,1600,F,9,red,Below,1,,531,1,1,0,1,,1,168007,172807,0,168538,36597,13,131.41,131.941,136.21,-36.597,28.411,260.022,491.62,231.635,463.233,694.831
1,rea,axc,2,DMCC8760894,rea_axc_run2_DMCC8760894,Ang,1600,A,7,red,Below,1,,1372,1,1,0,1,,1,175207,180007,0,176579,36597,14,138.61,139.982,143.41,-36.597,28.411,260.022,491.62,231.635,463.233,694.831
1,rea,axc,2,DMCC8760894,rea_axc_run2_DMCC8760894,AX,4000,A,X,white,Above,1,2,0,0,,429,0,1,0,182407,187206,187635,0,36597,15,145.81,-36.597,150.609,151.038,28.411,260.022,491.62,231.635,463.233,694.831
1,rea,axc,2,DMCC8760894,rea_axc_run2_DMCC8760894,BY,4000,T,H,white,Above,1,1,497,1,1,386,1,1,1,192020,196820,197206,192517,36597,16,155.423,155.92,160.223,160.609,28.411,260.022,491.62,231.635,463.233,694.831
1,rea,axc,2,DMCC8760894,rea_axc_run2_DMCC8760894,BX,4000,T,X,red,Below,1,1,329,1,1,568,1,1,1,201620,206420,206988,201949,36597,17,165.023,165.352,169.823,170.391,28.411,260.022,491.62,231.635,463.233,694.831
1,rea,axc,2,DMCC8760894,rea_axc_run2_DMCC8760894,AY,2800,A,F,red,Below,1,1,549,1,1,0,0,,0,211220,216020,0,211769,36597,18,174.623,175.172,179.423,-36.597,28.411,260.022,491.62,231.635,463.233,694.831
1,rea,axc,2,DMCC8760894,rea_axc_run2_DMCC8760894,BX,4000,H,X,red,Below,1,1,341,1,1,459,1,1,1,219620,224420,224879,219961,36597,19,183.023,183.364,187.823,188.282,28.411,260.022,491.62,231.635,463.233,694.831
1,rea,axc,2,DMCC8760894,rea_axc_run2_DMCC8760894,BY,2800,F,H,white,Above,1,1,404,1,1,548,1,1,1,229219,234019,234567,229623,36597,20,192.622,193.026,197.422,197.97,28.411,260.022,491.62,231.635,463.233,694.831
1,rea,axc,2,DMCC8760894,rea_axc_run2_DMCC8760894,AX,2800,A,X,white,Above,1,2,528,1,1,131,1,2,1,237619,242419,242550,238147,36597,21,201.022,201.55,205.822,205.953,28.411,260.022,491.62,231.635,463.233,694.831
1,rea,axc,2,DMCC8760894,rea_axc_run2_DMCC8760894,BY,1600,U,T,white,Above,1,1,0,0,,504,1,1,0,246019,250819,251323,0,36597,22,209.422,-36.597,214.222,214.726,28.411,260.022,491.62,231.635,463.233,694.831
1,rea,axc,2,DMCC8760894,rea_axc_run2_DMCC8760894,AX,2800,A,X,white,Above,1,2,1072,1,1,0,0,,0,253219,258019,0,254291,36597,23,216.622,217.694,221.422,-36.597,28.411,260.022,491.62,231.635,463.233,694.831
1,rea,axc,2,DMCC8760894,rea_axc_run2_DMCC8760894,BY,1600,C,F,white,Above,1,1,402,1,1,0,0,,0,261619,266419,0,262021,36597,24,225.022,225.424,229.822,-36.597,28.411,260.022,491.62,231.635,463.233,694.831
1,rea,axc,2,DMCC8760894,rea_axc_run2_DMCC8760894,AX,1600,A,X,white,Above,1,2,395,1,1,0,0,,0,298819,303619,0,299214,36597,25,262.222,262.617,267.022,-36.597,28.411,260.022,491.62,231.635,463.233,694.831
1,rea,axc,2,DMCC8760894,rea_axc_run2_DMCC8760894,BY,4000,P,C,white,Above,1,1,467,1,1,0,0,,0,306019,310819,0,306486,36597,26,269.422,269.889,274.222,-36.597,28.411,260.022,491.62,231.635,463.233,694.831
1,rea,axc,2,DMCC8760894,rea_axc_run2_DMCC8760894,AX,4000,A,X,white,Above,1,2,452,1,1,0,0,,0,315619,320419,0,316071,36597,27,279.022,279.474,283.822,-36.597,28.411,260.022,491.62,231.635,463.233,694.831
1,rea,axc,2,DMCC8760894,rea_axc_run2_DMCC8760894,BY,1600,N,D,white,Above,1,1,0,0,,851,1,1,0,325219,330019,330870,0,36597,28,288.622,-36.597,293.422,294.273,28.411,260.022,491.62,231.635,463.233,694.831
1,rea,axc,2,DMCC8760894,rea_axc_run2_DMCC8760894,Bng,2800,C,8,red,Below,1,,361,1,1,527,0,1,0,332419,337219,337746,332780,36597,29,295.822,296.183,300.622,301.149,28.411,260.022,491.62,231.635,463.233,694.831
1,rea,axc,2,DMCC8760894,rea_axc_run2_DMCC8760894,AX,4000,A,X,white,Above,1,2,445,1,1,427,1,2,1,340818,345618,346045,341263,36597,30,304.221,304.666,309.021,309.448,28.411,260.022,491.62,231.635,463.233,694.831
1,rea,axc,2,DMCC8760894,rea_axc_run2_DMCC8760894,BY,1600,H,F,white,Above,1,1,599,1,1,0,0,,0,350418,355218,0,351017,36597,31,313.821,314.42,318.621,-36.597,28.411,260.022,491.62,231.635,463.233,694.831
1,rea,axc,2,DMCC8760894,rea_axc_run2_DMCC8760894,Bng,2800,D,4,red,Below,1,,540,1,1,0,1,,1,357618,362418,0,358158,36597,32,321.021,321.561,325.821,-36.597,28.411,260.022,491.62,231.635,463.233,694.831
1,rea,axc,2,DMCC8760894,rea_axc_run2_DMCC8760894,AX,2800,A,X,white,Above,1,2,0,0,,0,0,,0,366018,370818,0,0,36597,33,329.421,-36.597,334.221,-36.597,28.411,260.022,491.62,231.635,463.233,694.831
1,rea,axc,2,DMCC8760894,rea_axc_run2_DMCC8760894,BY,4000,M,N,white,Above,1,1,0,0,,0,0,,0,374418,379218,0,0,36597,34,337.821,-36.597,342.621,-36.597,28.411,260.022,491.62,231.635,463.233,694.831
1,rea,axc,2,DMCC8760894,rea_axc_run2_DMCC8760894,BY,1600,T,P,white,Above,1,1,345,1,1,0,0,,0,384018,388818,0,384363,36597,35,347.421,347.766,352.221,-36.597,28.411,260.022,491.62,231.635,463.233,694.831
1,rea,axc,2,DMCC8760894,rea_axc_run2_DMCC8760894,BX,2800,N,X,red,Below,1,1,639,1,1,0,0,,0,391218,396018,0,391857,36597,36,354.621,355.26,359.421,-36.597,28.411,260.022,491.62,231.635,463.233,694.831
1,rea,axc,2,DMCC8760894,rea_axc_run2_DMCC8760894,BY,2800,M,U,white,Above,1,1,493,1,1,396,1,1,1,399618,404418,404814,400111,36597,37,363.021,363.514,367.821,368.217,28.411,260.022,491.62,231.635,463.233,694.831
1,rea,axc,2,DMCC8760894,rea_axc_run2_DMCC8760894,AX,4000,A,X,white,Above,1,2,509,1,1,610,0,1,0,408018,412818,413428,408527,36597,38,371.421,371.93,376.221,376.831,28.411,260.022,491.62,231.635,463.233,694.831
1,rea,axc,2,DMCC8760894,rea_axc_run2_DMCC8760894,Ang,4000,A,3,red,Below,1,,583,1,1,0,1,,1,417618,422418,0,418201,36597,39,381.021,381.604,385.821,-36.597,28.411,260.022,491.62,231.635,463.233,694.831
1,rea,axc,2,DMCC8760894,rea_axc_run2_DMCC8760894,BY,2800,F,D,white,Above,1,1,397,1,1,0,0,,0,427218,432018,0,427615,36597,40,390.621,391.018,395.421,-36.597,28.411,260.022,491.62,231.635,463.233,694.831
1,rea,axc,2,DMCC8760894,rea_axc_run2_DMCC8760894,AX,1600,A,X,white,Above,1,2,272,1,1,575,1,2,1,435618,440418,440993,435890,36597,41,399.021,399.293,403.821,404.396,28.411,260.022,491.62,231.635,463.233,694.831
1,rea,axc,2,DMCC8760894,rea_axc_run2_DMCC8760894,AX,2800,A,X,white,Above,1,2,0,0,,655,1,2,0,442818,447618,448273,0,36597,42,406.221,-36.597,411.021,411.676,28.411,260.022,491.62,231.635,463.233,694.831
1,rea,axc,2,DMCC8760894,rea_axc_run2_DMCC8760894,BX,4000,D,X,red,Below,1,1,503,1,1,0,0,,0,451218,456017,0,451721,36597,43,414.621,415.124,419.42,-36.597,28.411,260.022,491.62,231.635,463.233,694.831
1,rea,axc,2,DMCC8760894,rea_axc_run2_DMCC8760894,BY,1600,P,T,white,Above,1,1,0,0,,546,1,1,0,460817,465617,466163,0,36597,44,424.22,-36.597,429.02,429.566,28.411,260.022,491.62,231.635,463.233,694.831
1,rea,axc,2,DMCC8760894,rea_axc_run2_DMCC8760894,AY,1600,A,C,red,Below,1,1,0,0,,0,0,,0,468017,472817,0,0,36597,45,431.42,-36.597,436.22,-36.597,28.411,260.022,491.62,231.635,463.233,694.831
1,rea,axc,2,DMCC8760894,rea_axc_run2_DMCC8760894,AX,1600,A,X,white,Above,1,2,569,1,1,0,0,,0,475217,480017,0,475786,36597,46,438.62,439.189,443.42,-36.597,28.411,260.022,491.62,231.635,463.233,694.831
1,rea,axc,2,DMCC8760894,rea_axc_run2_DMCC8760894,AY,4000,A,M,red,Below,1,1,482,1,1,0,0,,0,482417,487217,0,482899,36597,47,445.82,446.302,450.62,-36.597,28.411,260.022,491.62,231.635,463.233,694.831
1,rea,axc,2,DMCC8760894,rea_axc_run2_DMCC8760894,Ang,2800,A,9,red,Below,1,,252,1,1,0,1,,1,492017,496817,0,492269,36597,48,455.42,455.672,460.22,-36.597,28.411,260.022,491.62,231.635,463.233,694.831
1,rea,axc,2,DMCC8760894,rea_axc_run2_DMCC8760894,AY,1600,A,U,red,Below,1,1,0,0,,708,1,1,0,530417,535217,535925,0,36597,49,493.82,-36.597,498.62,499.328,28.411,260.022,491.62,231.635,463.233,694.831
1,rea,axc,2,DMCC8760894,rea_axc_run2_DMCC8760894,BY,2800,D,C,white,Above,1,1,518,1,1,457,1,1,1,537617,542417,542874,538135,36597,50,501.02,501.538,505.82,506.277,28.411,260.022,491.62,231.635,463.233,694.831
1,rea,axc,2,DMCC8760894,rea_axc_run2_DMCC8760894,BY,1600,H,C,white,Above,1,1,438,1,1,443,1,1,1,546017,550817,551260,546455,36597,51,509.42,509.858,514.22,514.663,28.411,260.022,491.62,231.635,463.233,694.831
1,rea,axc,2,DMCC8760894,rea_axc_run2_DMCC8760894,Bng,2800,U,5,red,Below,1,,0,0,,0,1,,0,553217,558017,0,0,36597,52,516.62,-36.597,521.42,-36.597,28.411,260.022,491.62,231.635,463.233,694.831
1,rea,axc,2,DMCC8760894,rea_axc_run2_DMCC8760894,BY,4000,T,P,white,Above,1,1,575,1,1,0,0,,0,561617,566417,0,562192,36597,53,525.02,525.595,529.82,-36.597,28.411,260.022,491.62,231.635,463.233,694.831
1,rea,axc,2,DMCC8760894,rea_axc_run2_DMCC8760894,AX,4000,A,X,white,Above,1,2,292,1,1,741,1,2,1,571216,576016,576757,571508,36597,54,534.619,534.911,539.419,540.16,28.411,260.022,491.62,231.635,463.233,694.831
1,rea,axc,2,DMCC8760894,rea_axc_run2_DMCC8760894,BY,2800,P,T,white,Above,1,1,470,1,1,451,1,1,1,580816,585616,586067,581286,36597,55,544.219,544.689,549.019,549.47,28.411,260.022,491.62,231.635,463.233,694.831
1,rea,axc,2,DMCC8760894,rea_axc_run2_DMCC8760894,Ang,2800,A,1,red,Below,1,,379,1,1,0,1,,1,589216,594016,0,589595,36597,56,552.619,552.998,557.419,-36.597,28.411,260.022,491.62,231.635,463.233,694.831
1,rea,axc,2,DMCC8760894,rea_axc_run2_DMCC8760894,AX,1600,A,X,white,Above,1,2,695,1,1,675,1,2,1,597616,602416,603091,598311,36597,57,561.019,561.714,565.819,566.494,28.411,260.022,491.62,231.635,463.233,694.831
1,rea,axc,2,DMCC8760894,rea_axc_run2_DMCC8760894,AX,1600,A,X,white,Above,1,2,870,1,1,713,1,2,1,604816,609616,610329,605686,36597,58,568.219,569.089,573.019,573.732,28.411,260.022,491.62,231.635,463.233,694.831
1,rea,axc,2,DMCC8760894,rea_axc_run2_DMCC8760894,AX,4000,A,X,white,Above,1,2,637,1,1,1019,1,2,1,612016,616816,617835,612653,36597,59,575.419,576.056,580.219,581.238,28.411,260.022,491.62,231.635,463.233,694.831
1,rea,axc,2,DMCC8760894,rea_axc_run2_DMCC8760894,BY,4000,N,H,white,Above,1,1,644,1,1,0,0,,0,621616,626416,0,622260,36597,60,585.019,585.663,589.819,-36.597,28.411,260.022,491.62,231.635,463.233,694.831
1,rea,axc,2,DMCC8760894,rea_axc_run2_DMCC8760894,BY,4000,U,T,white,Above,1,1,447,1,1,0,0,,0,631216,636016,0,631663,36597,61,594.619,595.066,599.419,-36.597,28.411,260.022,491.62,231.635,463.233,694.831
1,rea,axc,2,DMCC8760894,rea_axc_run2_DMCC8760894,BY,4000,H,F,white,Above,1,1,478,1,1,668,1,1,1,640816,645616,646284,641294,36597,62,604.219,604.697,609.019,609.687,28.411,260.022,491.62,231.635,463.233,694.831
1,rea,axc,2,DMCC8760894,rea_axc_run2_DMCC8760894,AY,2800,A,F,red,Below,1,1,0,0,,470,1,1,0,650416,655216,655686,0,36597,63,613.819,-36.597,618.619,619.089,28.411,260.022,491.62,231.635,463.233,694.831
1,rea,axc,2,DMCC8760894,rea_axc_run2_DMCC8760894,BY,1600,D,C,white,Above,1,1,0,0,,0,0,,0,658816,663616,0,0,36597,64,622.219,-36.597,627.019,-36.597,28.411,260.022,491.62,231.635,463.233,694.831
1,rea,axc,2,DMCC8760894,rea_axc_run2_DMCC8760894,BX,2800,D,X,red,Below,1,1,357,1,1,405,1,1,1,666016,670816,671221,666373,36597,65,629.419,629.776,634.219,634.624,28.411,260.022,491.62,231.635,463.233,694.831
1,rea,axc,2,DMCC8760894,rea_axc_run2_DMCC8760894,Bng,1600,P,4,red,Below,1,,0,0,,0,1,,0,674416,679216,0,0,36597,66,637.819,-36.597,642.619,-36.597,28.411,260.022,491.62,231.635,463.233,694.831
1,rea,axc,2,DMCC8760894,rea_axc_run2_DMCC8760894,BX,1600,T,X,red,Below,1,1,237,1,1,732,0,2,0,681616,686415,687147,681853,36597,67,645.019,645.256,649.818,650.55,28.411,260.022,491.62,231.635,463.233,694.831
1,rea,axc,2,DMCC8760894,rea_axc_run2_DMCC8760894,AX,1600,A,X,white,Above,1,2,813,1,1,432,1,2,1,688815,693615,694047,689628,36597,68,652.218,653.031,657.018,657.45,28.411,260.022,491.62,231.635,463.233,694.831
1,rea,axc,2,DMCC8760894,rea_axc_run2_DMCC8760894,AX,2800,A,X,white,Above,1,2,476,1,1,434,0,1,0,696015,700815,701249,696491,36597,69,659.418,659.894,664.218,664.652,28.411,260.022,491.62,231.635,463.233,694.831
1,rea,axc,2,DMCC8760894,rea_axc_run2_DMCC8760894,AX,4000,A,X,white,Above,1,2,304,1,1,797,1,2,1,704415,709215,710012,704719,36597,70,667.818,668.122,672.618,673.415,28.411,260.022,491.62,231.635,463.233,694.831
1,rea,axc,2,DMCC8760894,rea_axc_run2_DMCC8760894,AX,4000,A,X,white,Above,1,2,924,1,1,0,0,,0,714015,718815,0,714939,36597,71,677.418,678.342,682.218,-36.597,28.411,260.022,491.62,231.635,463.233,694.831
1,rea,axc,2,DMCC8760894,rea_axc_run2_DMCC8760894,Ang,2800,A,7,red,Below,1,,0,0,,0,1,,0,723615,728415,0,0,36597,72,687.018,-36.597,691.818,-36.597,28.411,260.022,491.62,231.635,463.233,694.831
3,bas,axc,1,DMCC8760894,bas_axc_run1_DMCC8760894,BY,2800,M,F,white,center,1,1,435,1,1,434,1,1,1,132495,137295,137729,132930,101890,1,30.605,31.04,35.405,35.839,28.419,260.006,491.606,231.621,463.235,694.835
3,bas,axc,1,DMCC8760894,bas_axc_run1_DMCC8760894,Ang,2800,A,9,white,center,1,,405,1,1,0,1,,1,140895,145694,0,141300,101890,2,39.005,39.41,43.804,-101.89,28.419,260.006,491.606,231.621,463.235,694.835
3,bas,axc,1,DMCC8760894,bas_axc_run1_DMCC8760894,BX,1600,U,X,white,center,1,1,751,1,1,348,1,1,1,149308,154107,154455,150059,101890,3,47.418,48.169,52.217,52.565,28.419,260.006,491.606,231.621,463.235,694.835
3,bas,axc,1,DMCC8760894,bas_axc_run1_DMCC8760894,AX,1600,A,X,white,center,1,2,556,1,1,301,1,2,1,156507,161307,161608,157063,101890,4,54.617,55.173,59.417,59.718,28.419,260.006,491.606,231.621,463.235,694.835
3,bas,axc,1,DMCC8760894,bas_axc_run1_DMCC8760894,AX,4000,A,X,white,center,1,2,336,1,1,392,1,2,1,163707,168507,168899,164043,101890,5,61.817,62.153,66.617,67.009,28.419,260.006,491.606,231.621,463.235,694.835
3,bas,axc,1,DMCC8760894,bas_axc_run1_DMCC8760894,BY,4000,U,D,white,center,1,1,459,1,1,365,1,1,1,173306,178106,178471,173765,101890,6,71.416,71.875,76.216,76.581,28.419,260.006,491.606,231.621,463.235,694.835
3,bas,axc,1,DMCC8760894,bas_axc_run1_DMCC8760894,BY,4000,C,D,white,center,1,1,367,1,1,400,1,1,1,182906,187705,188105,183273,101890,7,81.016,81.383,85.815,86.215,28.419,260.006,491.606,231.621,463.235,694.835
3,bas,axc,1,DMCC8760894,bas_axc_run1_DMCC8760894,AX,4000,A,X,white,center,1,2,312,1,1,356,1,2,1,192505,197305,197661,192817,101890,8,90.615,90.927,95.415,95.771,28.419,260.006,491.606,231.621,463.235,694.835
3,bas,axc,1,DMCC8760894,bas_axc_run1_DMCC8760894,AY,2800,A,N,white,center,1,1,322,1,1,418,1,1,1,202105,206904,207322,202427,101890,9,100.215,100.537,105.014,105.432,28.419,260.006,491.606,231.621,463.235,694.835
3,bas,axc,1,DMCC8760894,bas_axc_run1_DMCC8760894,AX,1600,A,X,white,center,1,2,351,1,1,328,0,1,0,210504,215304,215632,210855,101890,10,108.614,108.965,113.414,113.742,28.419,260.006,491.606,231.621,463.235,694.835
3,bas,axc,1,DMCC8760894,bas_axc_run1_DMCC8760894,AX,1600,A,X,white,center,1,2,248,1,1,376,1,2,1,217704,222504,222880,217952,101890,11,115.814,116.062,120.614,120.99,28.419,260.006,491.606,231.621,463.235,694.835
3,bas,axc,1,DMCC8760894,bas_axc_run1_DMCC8760894,AY,2800,A,D,white,center,1,1,626,1,1,463,1,1,1,224903,229703,230166,225529,101890,12,123.013,123.639,127.813,128.276,28.419,260.006,491.606,231.621,463.235,694.835
3,bas,axc,1,DMCC8760894,bas_axc_run1_DMCC8760894,BX,1600,M,X,white,center,1,1,331,1,1,570,1,1,1,233303,238103,238673,233634,101890,13,131.413,131.744,136.213,136.783,28.419,260.006,491.606,231.621,463.235,694.835
3,bas,axc,1,DMCC8760894,bas_axc_run1_DMCC8760894,AX,1600,A,X,white,center,1,2,306,1,1,446,1,2,1,240503,245302,245748,240809,101890,14,138.613,138.919,143.412,143.858,28.419,260.006,491.606,231.621,463.235,694.835
3,bas,axc,1,DMCC8760894,bas_axc_run1_DMCC8760894,Bng,4000,U,7,white,center,1,,760,1,1,0,1,,1,247702,252502,0,248462,101890,15,145.812,146.572,150.612,-101.89,28.419,260.006,491.606,231.621,463.235,694.835
3,bas,axc,1,DMCC8760894,bas_axc_run1_DMCC8760894,BY,2800,H,U,white,center,1,1,340,1,1,340,1,1,1,257302,262101,262441,257642,101890,16,155.412,155.752,160.211,160.551,28.419,260.006,491.606,231.621,463.235,694.835
3,bas,axc,1,DMCC8760894,bas_axc_run1_DMCC8760894,Bng,1600,D,4,white,center,1,,302,1,1,0,1,,1,265701,270501,0,266003,101890,17,163.811,164.113,168.611,-101.89,28.419,260.006,491.606,231.621,463.235,694.835
3,bas,axc,1,DMCC8760894,bas_axc_run1_DMCC8760894,BY,2800,T,M,white,center,1,1,645,1,1,359,1,1,1,272901,277700,278059,273546,101890,18,171.011,171.656,175.81,176.169,28.419,260.006,491.606,231.621,463.235,694.835
3,bas,axc,1,DMCC8760894,bas_axc_run1_DMCC8760894,AX,2800,A,X,white,center,1,2,378,1,1,389,1,2,1,281300,286100,286489,281678,101890,19,179.41,179.788,184.21,184.599,28.419,260.006,491.606,231.621,463.235,694.835
3,bas,axc,1,DMCC8760894,bas_axc_run1_DMCC8760894,Ang,1600,A,1,white,center,1,,304,1,1,0,1,,1,289700,294500,0,290004,101890,20,187.81,188.114,192.61,-101.89,28.419,260.006,491.606,231.621,463.235,694.835
3,bas,axc,1,DMCC8760894,bas_axc_run1_DMCC8760894,AX,4000,A,X,white,center,1,2,349,1,1,353,1,2,1,296899,301699,302052,297248,101890,21,195.009,195.358,199.809,200.162,28.419,260.006,491.606,231.621,463.235,694.835
3,bas,axc,1,DMCC8760894,bas_axc_run1_DMCC8760894,BY,4000,F,C,white,center,1,1,415,1,1,410,1,1,1,306499,311299,311709,306914,101890,22,204.609,205.024,209.409,209.819,28.419,260.006,491.606,231.621,463.235,694.835
3,bas,axc,1,DMCC8760894,bas_axc_run1_DMCC8760894,BY,4000,P,H,white,center,1,1,351,1,1,313,1,1,1,316098,320898,321211,316449,101890,23,214.208,214.559,219.008,219.321,28.419,260.006,491.606,231.621,463.235,694.835
3,bas,axc,1,DMCC8760894,bas_axc_run1_DMCC8760894,BY,2800,N,U,white,center,1,1,552,1,1,437,1,1,1,325698,330498,330935,326250,101890,24,223.808,224.36,228.608,229.045,28.419,260.006,491.606,231.621,463.235,694.835
3,bas,axc,1,DMCC8760894,bas_axc_run1_DMCC8760894,AX,1600,A,X,white,center,1,2,311,1,1,294,1,2,1,364096,368895,369189,364407,101890,25,262.206,262.517,267.005,267.299,28.419,260.006,491.606,231.621,463.235,694.835
3,bas,axc,1,DMCC8760894,bas_axc_run1_DMCC8760894,BY,1600,D,T,white,center,1,1,683,1,1,359,1,1,1,371295,376095,376454,371978,101890,26,269.405,270.088,274.205,274.564,28.419,260.006,491.606,231.621,463.235,694.835
3,bas,axc,1,DMCC8760894,bas_axc_run1_DMCC8760894,AY,4000,A,T,white,center,1,1,0,0,,334,1,1,0,378495,383295,383629,0,101890,27,276.605,-101.89,281.405,281.739,28.419,260.006,491.606,231.621,463.235,694.835
3,bas,axc,1,DMCC8760894,bas_axc_run1_DMCC8760894,Ang,2800,A,7,white,center,1,,430,1,1,0,1,,1,388108,392907,0,388538,101890,28,286.218,286.648,291.017,-101.89,28.419,260.006,491.606,231.621,463.235,694.835
3,bas,axc,1,DMCC8760894,bas_axc_run1_DMCC8760894,BY,2800,D,N,white,center,1,1,0,0,,341,1,1,0,396507,401307,401648,0,101890,29,294.617,-101.89,299.417,299.758,28.419,260.006,491.606,231.621,463.235,694.835
3,bas,axc,1,DMCC8760894,bas_axc_run1_DMCC8760894,BY,1600,N,P,white,center,1,1,312,1,1,306,1,1,1,404907,409706,410012,405219,101890,30,303.017,303.329,307.816,308.122,28.419,260.006,491.606,231.621,463.235,694.835
3,bas,axc,1,DMCC8760894,bas_axc_run1_DMCC8760894,AX,4000,A,X,white,center,1,2,0,0,,445,0,1,0,412106,416906,417351,0,101890,31,310.216,-101.89,315.016,315.461,28.419,260.006,491.606,231.621,463.235,694.835
3,bas,axc,1,DMCC8760894,bas_axc_run1_DMCC8760894,BY,4000,H,T,white,center,1,1,412,1,1,436,1,1,1,421706,426506,426942,422118,101890,32,319.816,320.228,324.616,325.052,28.419,260.006,491.606,231.621,463.235,694.835
3,bas,axc,1,DMCC8760894,bas_axc_run1_DMCC8760894,Ang,1600,A,3,white,center,1,,385,1,1,0,1,,1,431305,436105,0,431690,101890,33,329.415,329.8,334.215,-101.89,28.419,260.006,491.606,231.621,463.235,694.835
3,bas,axc,1,DMCC8760894,bas_axc_run1_DMCC8760894,BY,2800,M,P,white,center,1,1,611,1,1,340,1,1,1,438505,443305,443645,439116,101890,34,336.615,337.226,341.415,341.755,28.419,260.006,491.606,231.621,463.235,694.835
3,bas,axc,1,DMCC8760894,bas_axc_run1_DMCC8760894,BY,2800,P,M,white,center,1,1,569,1,1,343,1,1,1,446904,451704,452047,447473,101890,35,345.014,345.583,349.814,350.157,28.419,260.006,491.606,231.621,463.235,694.835
3,bas,axc,1,DMCC8760894,bas_axc_run1_DMCC8760894,AX,4000,A,X,white,center,1,2,448,1,1,374,1,2,1,455304,460104,460478,455752,101890,36,353.414,353.862,358.214,358.588,28.419,260.006,491.606,231.621,463.235,694.835
3,bas,axc,1,DMCC8760894,bas_axc_run1_DMCC8760894,AX,2800,A,X,white,center,1,2,756,1,1,470,1,2,1,464903,469703,470173,465659,101890,37,363.013,363.769,367.813,368.283,28.419,260.006,491.606,231.621,463.235,694.835
3,bas,axc,1,DMCC8760894,bas_axc_run1_DMCC8760894,BX,1600,C,X,white,center,1,1,0,0,,359,1,1,0,473303,478103,478462,0,101890,38,371.413,-101.89,376.213,376.572,28.419,260.006,491.606,231.621,463.235,694.835
3,bas,axc,1,DMCC8760894,bas_axc_run1_DMCC8760894,AX,2800,A,X,white,center,1,2,461,1,1,404,1,2,1,480503,485302,485706,480964,101890,39,378.613,379.074,383.412,383.816,28.419,260.006,491.606,231.621,463.235,694.835
3,bas,axc,1,DMCC8760894,bas_axc_run1_DMCC8760894,AX,1600,A,X,white,center,1,2,0,0,,406,1,2,0,488902,493702,494108,0,101890,40,387.012,-101.89,391.812,392.218,28.419,260.006,491.606,231.621,463.235,694.835
3,bas,axc,1,DMCC8760894,bas_axc_run1_DMCC8760894,AY,2800,A,H,white,center,1,1,324,1,1,431,1,1,1,496102,500901,501332,496426,101890,41,394.212,394.536,399.011,399.442,28.419,260.006,491.606,231.621,463.235,694.835
3,bas,axc,1,DMCC8760894,bas_axc_run1_DMCC8760894,AX,4000,A,X,white,center,1,2,0,0,,318,0,1,0,504501,509301,509619,0,101890,42,402.611,-101.89,407.411,407.729,28.419,260.006,491.606,231.621,463.235,694.835
3,bas,axc,1,DMCC8760894,bas_axc_run1_DMCC8760894,BY,1600,T,N,white,center,1,1,669,1,1,418,1,1,1,514101,518900,519318,514770,101890,43,412.211,412.88,417.01,417.428,28.419,260.006,491.606,231.621,463.235,694.835
3,bas,axc,1,DMCC8760894,bas_axc_run1_DMCC8760894,BY,2800,U,P,white,center,1,1,0,0,,405,1,1,0,521300,526100,526505,0,101890,44,419.41,-101.89,424.21,424.615,28.419,260.006,491.606,231.621,463.235,694.835
3,bas,axc,1,DMCC8760894,bas_axc_run1_DMCC8760894,Bng,4000,H,5,white,center,1,,631,1,1,0,1,,1,529700,534500,0,530331,101890,45,427.81,428.441,432.61,-101.89,28.419,260.006,491.606,231.621,463.235,694.835
3,bas,axc,1,DMCC8760894,bas_axc_run1_DMCC8760894,AX,4000,A,X,white,center,1,2,384,1,1,547,1,2,1,539299,544099,544646,539683,101890,46,437.409,437.793,442.209,442.756,28.419,260.006,491.606,231.621,463.235,694.835
3,bas,axc,1,DMCC8760894,bas_axc_run1_DMCC8760894,Bng,1600,U,5,white,center,1,,799,1,1,0,1,,1,548899,553698,0,549698,101890,47,447.009,447.808,451.808,-101.89,28.419,260.006,491.606,231.621,463.235,694.835
3,bas,axc,1,DMCC8760894,bas_axc_run1_DMCC8760894,BX,4000,F,X,white,center,1,1,0,0,,631,1,1,0,556098,560898,561529,0,101890,48,454.208,-101.89,459.008,459.639,28.419,260.006,491.606,231.621,463.235,694.835
