"session","task","run","subj","name","stimuli","number","letter","trial.type","cue","number.resp","letter.resp","award","switch","cue.color","target.color","target.color.orig","incentive","iti","acc","rt","resp","cresp","time.cue.onset.abs","time.target.onset.abs","time.rt.abs","time.scan.start","trial.num","time.cue.onset","time.target.onset","time.rt","time.block1.on","time.block2.on","time.block3.on","time.block1.off","time.block2.off","time.block3.off"
"bas","cue",1,"197449","bas_cue_run1_197449","E3","o","v","i","l",2,1,NA,NA,"red","black","green","nonincentive",4400,1,2127,1,1,138517,143023,145150,107386,1,31.131,35.637,37.764,28.437,274.437,520.438,246.051,492.091,738.064
"bas","cue",1,"197449","bas_cue_run1_197449","D4","e","c","i","n",1,2,NA,"switch","red","black","green","nonincentive",3200,1,1854,1,1,151730,156237,158091,107386,2,44.344,48.851,50.705,28.437,274.437,520.438,246.051,492.091,738.064
"bas","cue",1,"197449","bas_cue_run1_197449","4D","e","c","i","n",1,2,NA,"stay","red","black","green","nonincentive",4400,1,1027,1,1,163730,168237,169264,107386,3,56.344,60.851,61.878,28.437,274.437,520.438,246.051,492.091,738.064
"bas","cue",1,"197449","bas_cue_run1_197449","A2","e","v","c","l",1,1,NA,"switch","red","black","black","nonincentive",2000,1,2234,1,1,176917,181423,183657,107386,4,69.531,74.037,76.271,28.437,274.437,520.438,246.051,492.091,738.064
"bas","cue",1,"197449","bas_cue_run1_197449","2A","e","v","c","n",1,1,NA,"switch","red","black","black","nonincentive",3200,1,640,1,1,187717,192237,192877,107386,5,80.331,84.851,85.491,28.437,274.437,520.438,246.051,492.091,738.064
"bas","cue",1,"197449","bas_cue_run1_197449","B1","o","c","c","l",2,2,NA,"switch","red","black","black","nonincentive",2000,1,1389,2,2,199730,204237,205626,107386,6,92.344,96.851,98.24,28.437,274.437,520.438,246.051,492.091,738.064
"bas","cue",1,"197449","bas_cue_run1_197449","6I","e","v","c","n",1,1,NA,"switch","red","black","green","nonincentive",3200,1,939,1,1,210530,215037,215976,107386,7,103.144,107.651,108.59,28.437,274.437,520.438,246.051,492.091,738.064
"bas","cue",1,"197449","bas_cue_run1_197449","H5","o","c","c","l",2,2,NA,"switch","red","black","black","nonincentive",2000,1,940,2,2,222517,227023,227963,107386,8,115.131,119.637,120.577,28.437,274.437,520.438,246.051,492.091,738.064
"bas","cue",1,"197449","bas_cue_run1_197449","1A","o","v","i","l",2,1,NA,"stay","red","black","black","nonincentive",4400,1,1803,1,1,233330,237837,239640,107386,9,125.944,130.451,132.254,28.437,274.437,520.438,246.051,492.091,738.064
"bas","cue",1,"197449","bas_cue_run1_197449","B2","e","c","i","n",1,2,NA,"switch","red","black","black","nonincentive",3200,1,1443,1,1,246530,251037,252480,107386,10,139.144,143.651,145.094,28.437,274.437,520.438,246.051,492.091,738.064
"bas","cue",1,"197449","bas_cue_run1_197449","A2","e","v","c","n",1,1,NA,"stay","red","black","black","nonincentive",4400,1,1210,1,1,258517,263023,264233,107386,11,151.131,155.637,156.847,28.437,274.437,520.438,246.051,492.091,738.064
"bas","cue",1,"197449","bas_cue_run1_197449","D4","e","c","i","l",1,2,NA,"switch","red","black","green","nonincentive",3200,1,1095,2,2,271730,276237,277332,107386,12,164.344,168.851,169.946,28.437,274.437,520.438,246.051,492.091,738.064
"bas","cue",1,"197449","bas_cue_run1_197449","B1","o","c","c","n",2,2,NA,"switch","red","black","black","nonincentive",2000,0,960,1,2,283730,288237,289197,107386,13,176.344,180.851,181.811,28.437,274.437,520.438,246.051,492.091,738.064
"bas","cue",1,"197449","bas_cue_run1_197449","5H","o","c","c","l",2,2,NA,"switch","red","black","black","nonincentive",2000,1,1319,2,2,294530,299023,300342,107386,14,187.144,191.637,192.956,28.437,274.437,520.438,246.051,492.091,738.064
"bas","cue",1,"197449","bas_cue_run1_197449","1B","o","c","c","l",2,2,NA,"stay","red","black","black","nonincentive",2000,0,0,NA,2,305317,309824,0,107386,15,197.931,202.438,-107.386,28.437,274.437,520.438,246.051,492.091,738.064
"bas","cue",1,"197449","bas_cue_run1_197449","I6","e","v","c","n",1,1,NA,"switch","red","black","black","nonincentive",4400,1,1651,1,1,316130,320637,322288,107386,16,208.744,213.251,214.902,28.437,274.437,520.438,246.051,492.091,738.064
"bas","cue",1,"197449","bas_cue_run1_197449","I6","e","v","c","l",1,1,NA,"switch","red","black","green","nonincentive",3200,1,1207,1,1,329330,333837,335044,107386,17,221.944,226.451,227.658,28.437,274.437,520.438,246.051,492.091,738.064
"bas","cue",1,"197449","bas_cue_run1_197449","1B","o","c","c","n",2,2,NA,"switch","red","black","black","nonincentive",4400,1,2065,2,2,341317,345823,347888,107386,18,233.931,238.437,240.502,28.437,274.437,520.438,246.051,492.091,738.064
"bas","cue",1,"197449","bas_cue_run1_197449","6I","e","v","c","n",1,1,NA,NA,"red","black","black","nonincentive",3200,1,1520,1,1,384517,389023,390543,107386,19,277.131,281.637,283.157,28.437,274.437,520.438,246.051,492.091,738.064
"bas","cue",1,"197449","bas_cue_run1_197449","E3","o","v","i","n",2,1,NA,"stay","red","black","green","nonincentive",3200,1,1761,2,2,396530,401037,402798,107386,20,289.144,293.651,295.412,28.437,274.437,520.438,246.051,492.091,738.064
"bas","cue",1,"197449","bas_cue_run1_197449","3E","o","v","i","n",2,1,NA,"stay","red","black","green","nonincentive",4400,1,1543,2,2,408530,413037,414580,107386,21,301.144,305.651,307.194,28.437,274.437,520.438,246.051,492.091,738.064
"bas","cue",1,"197449","bas_cue_run1_197449","2B","e","c","i","l",1,2,NA,"switch","red","black","black","nonincentive",2000,1,941,2,2,421717,426224,427165,107386,22,314.331,318.838,319.779,28.437,274.437,520.438,246.051,492.091,738.064
"bas","cue",1,"197449","bas_cue_run1_197449","2A","e","v","c","l",1,1,NA,"stay","red","black","black","nonincentive",2000,1,1802,1,1,432517,437037,438839,107386,23,325.131,329.651,331.453,28.437,274.437,520.438,246.051,492.091,738.064
"bas","cue",1,"197449","bas_cue_run1_197449","I6","e","v","c","l",1,1,NA,"stay","red","black","black","nonincentive",4400,1,1018,1,1,443330,447837,448855,107386,24,335.944,340.451,341.469,28.437,274.437,520.438,246.051,492.091,738.064
"bas","cue",1,"197449","bas_cue_run1_197449","2A","e","v","c","l",1,1,NA,"stay","red","black","black","nonincentive",2000,0,0,NA,1,456530,461024,0,107386,25,349.144,353.638,-107.386,28.437,274.437,520.438,246.051,492.091,738.064
"bas","cue",1,"197449","bas_cue_run1_197449","1B","o","c","c","n",2,2,NA,"switch","red","black","black","nonincentive",3200,1,2524,2,2,467317,471824,474348,107386,26,359.931,364.438,366.962,28.437,274.437,520.438,246.051,492.091,738.064
"bas","cue",1,"197449","bas_cue_run1_197449","3E","o","v","i","l",2,1,NA,"switch","red","black","green","nonincentive",4400,0,1542,2,1,479330,483837,485379,107386,27,371.944,376.451,377.993,28.437,274.437,520.438,246.051,492.091,738.064
"bas","cue",1,"197449","bas_cue_run1_197449","D4","e","c","i","l",1,2,NA,"stay","red","black","green","nonincentive",2000,0,0,NA,2,492530,497037,0,107386,28,385.144,389.651,-107.386,28.437,274.437,520.438,246.051,492.091,738.064
"bas","cue",1,"197449","bas_cue_run1_197449","A2","e","v","c","n",1,1,NA,"switch","red","black","black","nonincentive",4400,1,1141,1,1,503317,507824,508965,107386,29,395.931,400.438,401.579,28.437,274.437,520.438,246.051,492.091,738.064
"bas","cue",1,"197449","bas_cue_run1_197449","5H","o","c","c","n",2,2,NA,"stay","red","black","green","nonincentive",2000,1,1200,2,2,516530,521037,522237,107386,30,409.144,413.651,414.851,28.437,274.437,520.438,246.051,492.091,738.064
"bas","cue",1,"197449","bas_cue_run1_197449","2A","e","v","c","n",1,1,NA,"stay","red","black","black","nonincentive",2000,0,0,NA,1,527330,531837,0,107386,31,419.944,424.451,-107.386,28.437,274.437,520.438,246.051,492.091,738.064
"bas","cue",1,"197449","bas_cue_run1_197449","E3","o","v","i","n",2,1,NA,"stay","red","black","green","nonincentive",3200,1,1048,2,2,538130,542624,543672,107386,32,430.744,435.238,436.286,28.437,274.437,520.438,246.051,492.091,738.064
"bas","cue",1,"197449","bas_cue_run1_197449","A1","o","v","i","n",2,1,NA,"stay","red","black","black","nonincentive",3200,0,2211,1,2,550117,554637,556848,107386,33,442.731,447.251,449.462,28.437,274.437,520.438,246.051,492.091,738.064
"bas","cue",1,"197449","bas_cue_run1_197449","5H","o","c","c","l",2,2,NA,"switch","red","black","black","nonincentive",3200,1,1052,2,2,562130,566637,567689,107386,34,454.744,459.251,460.303,28.437,274.437,520.438,246.051,492.091,738.064
"bas","cue",1,"197449","bas_cue_run1_197449","1B","o","c","c","l",2,2,NA,"stay","red","black","black","nonincentive",4400,1,1580,2,2,574130,578637,580217,107386,35,466.744,471.251,472.831,28.437,274.437,520.438,246.051,492.091,738.064
"bas","cue",1,"197449","bas_cue_run1_197449","B1","o","c","c","l",2,2,NA,"stay","red","black","black","nonincentive",4400,1,3119,2,2,587317,591824,594943,107386,36,479.931,484.438,487.557,28.437,274.437,520.438,246.051,492.091,738.064
"bas","cue",1,"197449","bas_cue_run1_197449","1B","o","c","c","l",2,2,NA,NA,"red","black","black","nonincentive",4400,1,2919,2,2,630517,635024,637943,107386,37,523.131,527.638,530.557,28.437,274.437,520.438,246.051,492.091,738.064
"bas","cue",1,"197449","bas_cue_run1_197449","H5","o","c","c","l",2,2,NA,"stay","red","black","green","nonincentive",4400,0,0,NA,2,643730,648237,0,107386,38,536.344,540.851,-107.386,28.437,274.437,520.438,246.051,492.091,738.064
"bas","cue",1,"197449","bas_cue_run1_197449","3E","o","v","i","n",2,1,NA,"switch","red","black","green","nonincentive",2000,1,1096,2,2,656930,661437,662533,107386,39,549.544,554.051,555.147,28.437,274.437,520.438,246.051,492.091,738.064
"bas","cue",1,"197449","bas_cue_run1_197449","1A","o","v","i","n",2,1,NA,"stay","red","black","black","nonincentive",3200,1,1130,2,2,667717,672224,673354,107386,40,560.331,564.838,565.968,28.437,274.437,520.438,246.051,492.091,738.064
"bas","cue",1,"197449","bas_cue_run1_197449","H5","o","c","c","n",2,2,NA,"stay","red","black","black","nonincentive",4400,0,0,NA,2,679730,684237,0,107386,41,572.344,576.851,-107.386,28.437,274.437,520.438,246.051,492.091,738.064
"bas","cue",1,"197449","bas_cue_run1_197449","B1","o","c","c","l",2,2,NA,"switch","red","black","black","nonincentive",2000,1,1355,2,2,692930,697437,698792,107386,42,585.544,590.051,591.406,28.437,274.437,520.438,246.051,492.091,738.064
"bas","cue",1,"197449","bas_cue_run1_197449","6I","e","v","c","l",1,1,NA,"stay","red","black","black","nonincentive",3200,0,0,NA,1,703717,708224,0,107386,43,596.331,600.838,-107.386,28.437,274.437,520.438,246.051,492.091,738.064
"bas","cue",1,"197449","bas_cue_run1_197449","4D","e","c","i","n",1,2,NA,"switch","red","black","green","nonincentive",3200,0,0,NA,1,715717,720237,0,107386,44,608.331,612.851,-107.386,28.437,274.437,520.438,246.051,492.091,738.064
"bas","cue",1,"197449","bas_cue_run1_197449","1B","o","c","c","n",2,2,NA,"stay","red","black","black","nonincentive",2000,0,0,NA,2,727730,732237,0,107386,45,620.344,624.851,-107.386,28.437,274.437,520.438,246.051,492.091,738.064
"bas","cue",1,"197449","bas_cue_run1_197449","A2","e","v","c","n",1,1,NA,"stay","red","black","black","nonincentive",3200,0,3163,2,1,738530,743024,746187,107386,46,631.144,635.638,638.801,28.437,274.437,520.438,246.051,492.091,738.064
"bas","cue",1,"197449","bas_cue_run1_197449","A2","e","v","c","l",1,1,NA,"switch","red","black","black","nonincentive",3200,1,1587,1,1,750517,755024,756611,107386,47,643.131,647.638,649.225,28.437,274.437,520.438,246.051,492.091,738.064
"bas","cue",1,"197449","bas_cue_run1_197449","E3","o","v","i","l",2,1,NA,"stay","red","black","green","nonincentive",3200,0,0,NA,1,762530,767037,0,107386,48,655.144,659.651,-107.386,28.437,274.437,520.438,246.051,492.091,738.064
"bas","cue",1,"197449","bas_cue_run1_197449","3E","o","v","i","l",2,1,NA,"stay","red","black","green","nonincentive",4400,0,0,NA,1,774530,779037,0,107386,49,667.144,671.651,-107.386,28.437,274.437,520.438,246.051,492.091,738.064
"bas","cue",1,"197449","bas_cue_run1_197449","4D","e","c","i","l",1,2,NA,"stay","red","black","green","nonincentive",2000,0,0,NA,2,787717,792224,0,107386,50,680.331,684.838,-107.386,28.437,274.437,520.438,246.051,492.091,738.064
"bas","cue",1,"197449","bas_cue_run1_197449","2A","e","v","c","n",1,1,NA,"switch","red","black","black","nonincentive",2000,0,0,NA,1,798530,803037,0,107386,51,691.144,695.651,-107.386,28.437,274.437,520.438,246.051,492.091,738.064
"bas","cue",1,"197449","bas_cue_run1_197449","6I","e","v","c","n",1,1,NA,"stay","red","black","black","nonincentive",4400,1,2820,1,1,809330,813837,816657,107386,52,701.944,706.451,709.271,28.437,274.437,520.438,246.051,492.091,738.064
"bas","cue",1,"197449","bas_cue_run1_197449","B1","o","c","c","n",2,2,NA,"stay","red","black","black","nonincentive",2000,0,0,NA,2,822530,827024,0,107386,53,715.144,719.638,-107.386,28.437,274.437,520.438,246.051,492.091,738.064
"bas","cue",1,"197449","bas_cue_run1_197449","2A","e","v","c","l",1,1,NA,"switch","red","black","black","nonincentive",4400,1,701,1,1,833317,837824,838525,107386,54,725.931,730.438,731.139,28.437,274.437,520.438,246.051,492.091,738.064
"bas","cue",2,"197449","bas_cue_run2_197449","A2","e","v","c","n",1,1,NA,NA,"red","black","black","nonincentive",3200,1,1232,1,1,75401,79894,81126,44244,1,31.157,35.65,36.882,28.45,274.45,520.45,246.064,492.064,738.064
"bas","cue",2,"197449","bas_cue_run2_197449","B1","o","c","c","n",2,2,NA,"stay","red","black","black","nonincentive",2000,1,1725,2,2,87401,91894,93619,44244,2,43.157,47.65,49.375,28.45,274.45,520.45,246.064,492.064,738.064
"bas","cue",2,"197449","bas_cue_run2_197449","E3","o","v","i","l",2,1,NA,"switch","red","black","green","nonincentive",2000,1,1122,1,1,98188,102681,103803,44244,3,53.944,58.437,59.559,28.45,274.45,520.45,246.064,492.064,738.064
"bas","cue",2,"197449","bas_cue_run2_197449","6I","e","v","c","n",1,1,NA,"switch","red","black","black","nonincentive",3200,0,0,NA,1,108988,113494,0,44244,4,64.744,69.25,-44.244,28.45,274.45,520.45,246.064,492.064,738.064
"bas","cue",2,"197449","bas_cue_run2_197449","1B","o","c","c","l",2,2,NA,"switch","red","black","black","nonincentive",4400,0,0,NA,2,121001,125494,0,44244,5,76.757,81.25,-44.244,28.45,274.45,520.45,246.064,492.064,738.064
"bas","cue",2,"197449","bas_cue_run2_197449","5H","o","c","c","n",2,2,NA,"switch","red","black","black","nonincentive",4400,1,1719,2,2,134201,138681,140400,44244,6,89.957,94.437,96.156,28.45,274.45,520.45,246.064,492.064,738.064
"bas","cue",2,"197449","bas_cue_run2_197449","D4","e","c","i","n",1,2,NA,"stay","red","black","green","nonincentive",2000,0,0,NA,1,147388,151894,0,44244,7,103.144,107.65,-44.244,28.45,274.45,520.45,246.064,492.064,738.064
"bas","cue",2,"197449","bas_cue_run2_197449","E3","o","v","i","n",2,1,NA,"stay","red","black","green","nonincentive",3200,0,2220,1,2,158201,162694,164914,44244,8,113.957,118.45,120.67,28.45,274.45,520.45,246.064,492.064,738.064
"bas","cue",2,"197449","bas_cue_run2_197449","6I","e","v","c","l",1,1,NA,"switch","red","black","green","nonincentive",4400,0,1241,2,1,170201,174694,175935,44244,9,125.957,130.45,131.691,28.45,274.45,520.45,246.064,492.064,738.064
"bas","cue",2,"197449","bas_cue_run2_197449","A2","e","v","c","l",1,1,NA,"stay","red","black","black","nonincentive",4400,1,2797,1,1,183388,187881,190678,44244,10,139.144,143.637,146.434,28.45,274.45,520.45,246.064,492.064,738.064
"bas","cue",2,"197449","bas_cue_run2_197449","B2","e","c","i","l",1,2,NA,"stay","red","black","black","nonincentive",4400,0,0,NA,2,196601,201094,0,44244,11,152.357,156.85,-44.244,28.45,274.45,520.45,246.064,492.064,738.064
"bas","cue",2,"197449","bas_cue_run2_197449","1B","o","c","c","n",2,2,NA,"switch","red","black","black","nonincentive",3200,0,0,NA,2,209801,214294,0,44244,12,165.557,170.05,-44.244,28.45,274.45,520.45,246.064,492.064,738.064
"bas","cue",2,"197449","bas_cue_run2_197449","H5","o","c","c","l",2,2,NA,"switch","red","black","black","nonincentive",2000,1,1413,2,2,221788,226281,227694,44244,13,177.544,182.037,183.45,28.45,274.45,520.45,246.064,492.064,738.064
"bas","cue",2,"197449","bas_cue_run2_197449","2A","e","v","c","l",1,1,NA,"stay","red","black","black","nonincentive",2000,0,0,NA,1,232601,237094,0,44244,14,188.357,192.85,-44.244,28.45,274.45,520.45,246.064,492.064,738.064
"bas","cue",2,"197449","bas_cue_run2_197449","4D","e","c","i","l",1,2,NA,"stay","red","black","green","nonincentive",3200,1,759,2,2,243401,247894,248653,44244,15,199.157,203.65,204.409,28.45,274.45,520.45,246.064,492.064,738.064
"bas","cue",2,"197449","bas_cue_run2_197449","3E","o","v","i","n",2,1,NA,"switch","red","black","green","nonincentive",4400,1,2445,2,2,255401,259881,262326,44244,16,211.157,215.637,218.082,28.45,274.45,520.45,246.064,492.064,738.064
"bas","cue",2,"197449","bas_cue_run2_197449","B1","o","c","c","l",2,2,NA,"switch","red","black","black","nonincentive",2000,0,0,NA,2,268588,273094,0,44244,17,224.344,228.85,-44.244,28.45,274.45,520.45,246.064,492.064,738.064
"bas","cue",2,"197449","bas_cue_run2_197449","2A","e","v","c","n",1,1,NA,"switch","red","black","black","nonincentive",3200,0,0,NA,1,279401,283894,0,44244,18,235.157,239.65,-44.244,28.45,274.45,520.45,246.064,492.064,738.064
"bas","cue",2,"197449","bas_cue_run2_197449","H5","o","c","c","l",2,2,NA,NA,"red","black","black","nonincentive",2000,1,1921,2,2,321401,325894,327815,44244,19,277.157,281.65,283.571,28.45,274.45,520.45,246.064,492.064,738.064
"bas","cue",2,"197449","bas_cue_run2_197449","1B","o","c","c","l",2,2,NA,"stay","red","black","black","nonincentive",3200,0,0,NA,2,332201,336694,0,44244,20,287.957,292.45,-44.244,28.45,274.45,520.45,246.064,492.064,738.064
"bas","cue",2,"197449","bas_cue_run2_197449","B1","o","c","c","l",2,2,NA,"stay","red","black","black","nonincentive",3200,0,0,NA,2,344188,348681,0,44244,21,299.944,304.437,-44.244,28.45,274.45,520.45,246.064,492.064,738.064
"bas","cue",2,"197449","bas_cue_run2_197449","I6","e","v","c","n",1,1,NA,"switch","red","black","green","nonincentive",4400,0,0,NA,1,356201,360694,0,44244,22,311.957,316.45,-44.244,28.45,274.45,520.45,246.064,492.064,738.064
"bas","cue",2,"197449","bas_cue_run2_197449","3E","o","v","i","l",2,1,NA,"switch","red","black","green","nonincentive",2000,0,0,NA,1,369401,373894,0,44244,23,325.157,329.65,-44.244,28.45,274.45,520.45,246.064,492.064,738.064
"bas","cue",2,"197449","bas_cue_run2_197449","A2","e","v","c","l",1,1,NA,"stay","red","black","black","nonincentive",3200,1,2452,1,1,380188,384681,387133,44244,24,335.944,340.437,342.889,28.45,274.45,520.45,246.064,492.064,738.064
"bas","cue",2,"197449","bas_cue_run2_197449","2A","e","v","c","l",1,1,NA,"stay","red","black","black","nonincentive",2000,0,0,NA,1,392188,396694,0,44244,25,347.944,352.45,-44.244,28.45,274.45,520.45,246.064,492.064,738.064
"bas","cue",2,"197449","bas_cue_run2_197449","2B","e","c","i","n",1,2,NA,"switch","red","black","black","nonincentive",4400,0,0,NA,1,403001,407494,0,44244,26,358.757,363.25,-44.244,28.45,274.45,520.45,246.064,492.064,738.064
"bas","cue",2,"197449","bas_cue_run2_197449","D4","e","c","i","l",1,2,NA,"switch","red","black","green","nonincentive",4400,0,0,NA,2,416201,420681,0,44244,27,371.957,376.437,-44.244,28.45,274.45,520.45,246.064,492.064,738.064
"bas","cue",2,"197449","bas_cue_run2_197449","2A","e","v","c","n",1,1,NA,"switch","red","black","black","nonincentive",3200,1,1525,1,1,429388,433881,435406,44244,28,385.144,389.637,391.162,28.45,274.45,520.45,246.064,492.064,738.064
"bas","cue",2,"197449","bas_cue_run2_197449","D4","e","c","i","n",1,2,NA,"stay","red","black","green","nonincentive",3200,0,0,NA,1,441401,445894,0,44244,29,397.157,401.65,-44.244,28.45,274.45,520.45,246.064,492.064,738.064
"bas","cue",2,"197449","bas_cue_run2_197449","I6","e","v","c","l",1,1,NA,"switch","red","black","black","nonincentive",2000,0,0,NA,1,453401,457894,0,44244,30,409.157,413.65,-44.244,28.45,274.45,520.45,246.064,492.064,738.064
"bas","cue",2,"197449","bas_cue_run2_197449","I6","e","v","c","n",1,1,NA,"switch","red","black","black","nonincentive",2000,0,0,NA,1,464188,468681,0,44244,31,419.944,424.437,-44.244,28.45,274.45,520.45,246.064,492.064,738.064
"bas","cue",2,"197449","bas_cue_run2_197449","5H","o","c","c","l",2,2,NA,"switch","red","black","green","nonincentive",4400,0,0,NA,2,475001,479494,0,44244,32,430.757,435.25,-44.244,28.45,274.45,520.45,246.064,492.064,738.064
"bas","cue",2,"197449","bas_cue_run2_197449","A2","e","v","c","n",1,1,NA,"switch","red","black","black","nonincentive",2000,1,679,1,1,488201,492694,493373,44244,33,443.957,448.45,449.129,28.45,274.45,520.45,246.064,492.064,738.064
"bas","cue",2,"197449","bas_cue_run2_197449","4D","e","c","i","n",1,2,NA,"stay","red","black","green","nonincentive",3200,0,0,NA,1,499001,503481,0,44244,34,454.757,459.237,-44.244,28.45,274.45,520.45,246.064,492.064,738.064
"bas","cue",2,"197449","bas_cue_run2_197449","B1","o","c","c","n",2,2,NA,"stay","red","black","black","nonincentive",4400,0,0,NA,2,510988,515494,0,44244,35,466.744,471.25,-44.244,28.45,274.45,520.45,246.064,492.064,738.064
"bas","cue",2,"197449","bas_cue_run2_197449","1A","o","v","i","n",2,1,NA,"stay","red","black","black","nonincentive",4400,1,1685,2,2,524201,528694,530379,44244,36,479.957,484.45,486.135,28.45,274.45,520.45,246.064,492.064,738.064
"bas","cue",2,"197449","bas_cue_run2_197449","D4","e","c","i","l",1,2,NA,NA,"red","black","green","nonincentive",4400,0,0,NA,2,567401,571894,0,44244,37,523.157,527.65,-44.244,28.45,274.45,520.45,246.064,492.064,738.064
"bas","cue",2,"197449","bas_cue_run2_197449","2B","e","c","i","l",1,2,NA,"stay","red","black","black","nonincentive",2000,0,0,NA,2,580601,585081,0,44244,38,536.357,540.837,-44.244,28.45,274.45,520.45,246.064,492.064,738.064
"bas","cue",2,"197449","bas_cue_run2_197449","B1","o","c","c","n",2,2,NA,"switch","red","black","black","nonincentive",3200,0,0,NA,2,591388,595881,0,44244,39,547.144,551.637,-44.244,28.45,274.45,520.45,246.064,492.064,738.064
"bas","cue",2,"197449","bas_cue_run2_197449","A2","e","v","c","l",1,1,NA,"switch","red","black","black","nonincentive",3200,0,0,NA,1,603401,607894,0,44244,40,559.157,563.65,-44.244,28.45,274.45,520.45,246.064,492.064,738.064
"bas","cue",2,"197449","bas_cue_run2_197449","E3","o","v","i","l",2,1,NA,"stay","red","black","green","nonincentive",3200,0,0,NA,1,615401,619894,0,44244,41,571.157,575.65,-44.244,28.45,274.45,520.45,246.064,492.064,738.064
"bas","cue",2,"197449","bas_cue_run2_197449","2A","e","v","c","n",1,1,NA,"switch","red","black","black","nonincentive",2000,0,0,NA,1,627388,631881,0,44244,42,583.144,587.637,-44.244,28.45,274.45,520.45,246.064,492.064,738.064
"bas","cue",2,"197449","bas_cue_run2_197449","4D","e","c","i","n",1,2,NA,"stay","red","black","green","nonincentive",2000,0,0,NA,1,638201,642694,0,44244,43,593.957,598.45,-44.244,28.45,274.45,520.45,246.064,492.064,738.064
"bas","cue",2,"197449","bas_cue_run2_197449","3E","o","v","i","n",2,1,NA,"stay","red","black","green","nonincentive",4400,0,0,NA,2,649001,653494,0,44244,44,604.757,609.25,-44.244,28.45,274.45,520.45,246.064,492.064,738.064
"bas","cue",2,"197449","bas_cue_run2_197449","B1","o","c","c","l",2,2,NA,"switch","red","black","black","nonincentive",4400,1,1016,2,2,662201,666681,667697,44244,45,617.957,622.437,623.453,28.45,274.45,520.45,246.064,492.064,738.064
"bas","cue",2,"197449","bas_cue_run2_197449","A1","o","v","i","l",2,1,NA,"stay","red","black","black","nonincentive",2000,1,1495,1,1,675388,679894,681389,44244,46,631.144,635.65,637.145,28.45,274.45,520.45,246.064,492.064,738.064
"bas","cue",2,"197449","bas_cue_run2_197449","H5","o","c","c","n",2,2,NA,"switch","red","black","green","nonincentive",4400,0,1047,1,2,686201,690694,691741,44244,47,641.957,646.45,647.497,28.45,274.45,520.45,246.064,492.064,738.064
"bas","cue",2,"197449","bas_cue_run2_197449","1B","o","c","c","n",2,2,NA,"stay","red","black","black","nonincentive",4400,0,2737,1,2,699401,703881,706618,44244,48,655.157,659.637,662.374,28.45,274.45,520.45,246.064,492.064,738.064
"bas","cue",2,"197449","bas_cue_run2_197449","A2","e","v","c","n",1,1,NA,"stay","red","black","black","nonincentive",2000,0,1054,2,1,712588,717081,718135,44244,49,668.344,672.837,673.891,28.45,274.45,520.45,246.064,492.064,738.064
"bas","cue",2,"197449","bas_cue_run2_197449","H5","o","c","c","l",2,2,NA,"switch","red","black","black","nonincentive",3200,1,852,2,2,723401,727894,728746,44244,50,679.157,683.65,684.502,28.45,274.45,520.45,246.064,492.064,738.064
"bas","cue",2,"197449","bas_cue_run2_197449","4D","e","c","i","l",1,2,NA,"stay","red","black","green","nonincentive",4400,0,0,NA,2,735401,739894,0,44244,51,691.157,695.65,-44.244,28.45,274.45,520.45,246.064,492.064,738.064
"bas","cue",2,"197449","bas_cue_run2_197449","5H","o","c","c","n",2,2,NA,"switch","red","black","black","nonincentive",3200,1,680,2,2,748588,753081,753761,44244,52,704.344,708.837,709.517,28.45,274.45,520.45,246.064,492.064,738.064
"bas","cue",2,"197449","bas_cue_run2_197449","1B","o","c","c","l",2,2,NA,"switch","red","black","black","nonincentive",3200,1,1825,2,2,760601,765094,766919,44244,53,716.357,720.85,722.675,28.45,274.45,520.45,246.064,492.064,738.064
"bas","cue",2,"197449","bas_cue_run2_197449","6I","e","v","c","n",1,1,NA,"switch","red","black","black","nonincentive",2000,1,1688,1,1,772601,777094,778782,44244,54,728.357,732.85,734.538,28.45,274.45,520.45,246.064,492.064,738.064
"pro","cue",1,"197449","pro_cue_run1_197449","1B","o","c","c","n",2,2,NA,NA,"red","black","black","nonincentive",2000,0,1238,1,2,142592,147075,148313,111458,1,31.134,35.617,36.855,28.417,274.434,520.433,246.034,492.033,738.016
"pro","cue",1,"197449","pro_cue_run1_197449","B2","e","c","i","n",1,2,NA,"stay","red","black","black","nonincentive",4400,1,1698,1,1,153392,157875,159573,111458,2,41.934,46.417,48.115,28.417,274.434,520.433,246.034,492.033,738.016
"pro","cue",1,"197449","pro_cue_run1_197449","B1","o","c","c","l",2,2,NA,"switch","red","black","black","nonincentive",4400,1,1241,2,2,166575,171092,172333,111458,3,55.117,59.634,60.875,28.417,274.434,520.433,246.034,492.033,738.016
"pro","cue",1,"197449","pro_cue_run1_197449","D4","e","c","i","l",1,2,"yes","stay","green","black","green","incentive",3200,1,1403,2,2,179792,184275,185678,111458,4,68.334,72.817,74.22,28.417,274.434,520.433,246.034,492.033,738.016
"pro","cue",1,"197449","pro_cue_run1_197449","5H","o","c","c","l",2,2,NA,"stay","red","black","black","nonincentive",3200,1,1353,2,2,191775,196292,197645,111458,5,80.317,84.834,86.187,28.417,274.434,520.433,246.034,492.033,738.016
"pro","cue",1,"197449","pro_cue_run1_197449","I6","e","v","c","n",1,1,NA,"switch","red","black","black","nonincentive",2000,0,1771,2,1,203792,208292,210063,111458,6,92.334,96.834,98.605,28.417,274.434,520.433,246.034,492.033,738.016
"pro","cue",1,"197449","pro_cue_run1_197449","I6","e","v","c","l",1,1,"yes","switch","green","black","green","incentive",2000,1,1085,1,1,214592,219075,220160,111458,7,103.134,107.617,108.702,28.417,274.434,520.433,246.034,492.033,738.016
"pro","cue",1,"197449","pro_cue_run1_197449","D4","e","c","i","n",1,2,"yes","switch","green","black","green","incentive",3200,1,1148,1,1,225392,229875,231023,111458,8,113.934,118.417,119.565,28.417,274.434,520.433,246.034,492.033,738.016
"pro","cue",1,"197449","pro_cue_run1_197449","A2","e","v","c","l",1,1,NA,"switch","red","black","black","nonincentive",4400,1,907,1,1,237375,241892,242799,111458,9,125.917,130.434,131.341,28.417,274.434,520.433,246.034,492.033,738.016
"pro","cue",1,"197449","pro_cue_run1_197449","2A","e","v","c","n",1,1,NA,"switch","red","black","black","nonincentive",2000,1,964,1,1,250592,255075,256039,111458,10,139.134,143.617,144.581,28.417,274.434,520.433,246.034,492.033,738.016
"pro","cue",1,"197449","pro_cue_run1_197449","4D","e","c","i","n",1,2,"yes","stay","green","black","green","incentive",4400,1,927,1,1,261392,265892,266819,111458,11,149.934,154.434,155.361,28.417,274.434,520.433,246.034,492.033,738.016
"pro","cue",1,"197449","pro_cue_run1_197449","B1","o","c","c","n",2,2,NA,"stay","red","black","black","nonincentive",3200,1,1641,2,2,274592,279092,280733,111458,12,163.134,167.634,169.275,28.417,274.434,520.433,246.034,492.033,738.016
"pro","cue",1,"197449","pro_cue_run1_197449","1B","o","c","c","l",2,2,NA,"switch","red","black","black","nonincentive",4400,1,1284,2,2,286592,291075,292359,111458,13,175.134,179.617,180.901,28.417,274.434,520.433,246.034,492.033,738.016
"pro","cue",1,"197449","pro_cue_run1_197449","1A","o","v","i","l",2,1,NA,"stay","red","black","black","nonincentive",2000,1,882,1,1,299775,304292,305174,111458,14,188.317,192.834,193.716,28.417,274.434,520.433,246.034,492.033,738.016
"pro","cue",1,"197449","pro_cue_run1_197449","H5","o","c","c","l",2,2,NA,"stay","red","black","black","nonincentive",3200,0,0,NA,2,310592,315092,0,111458,15,199.134,203.634,-111.458,28.417,274.434,520.433,246.034,492.033,738.016
"pro","cue",1,"197449","pro_cue_run1_197449","A2","e","v","c","n",1,1,NA,"switch","red","black","black","nonincentive",2000,1,1336,1,1,322592,327075,328411,111458,16,211.134,215.617,216.953,28.417,274.434,520.433,246.034,492.033,738.016
"pro","cue",1,"197449","pro_cue_run1_197449","E3","o","v","i","l",2,1,"yes","switch","green","black","green","incentive",4400,1,1449,1,1,333375,337892,339341,111458,17,221.917,226.434,227.883,28.417,274.434,520.433,246.034,492.033,738.016
"pro","cue",1,"197449","pro_cue_run1_197449","6I","e","v","c","n",1,1,"yes","switch","green","black","green","incentive",3200,1,1504,1,1,346592,351092,352596,111458,18,235.134,239.634,241.138,28.417,274.434,520.433,246.034,492.033,738.016
"pro","cue",1,"197449","pro_cue_run1_197449","A1","o","v","i","n",2,1,NA,NA,"red","black","black","nonincentive",4400,0,0,NA,2,388575,393092,0,111458,19,277.117,281.634,-111.458,28.417,274.434,520.433,246.034,492.033,738.016
"pro","cue",1,"197449","pro_cue_run1_197449","5H","o","c","c","l",2,2,NA,"switch","red","black","black","nonincentive",2000,1,1179,2,2,401792,406275,407454,111458,20,290.334,294.817,295.996,28.417,274.434,520.433,246.034,492.033,738.016
"pro","cue",1,"197449","pro_cue_run1_197449","6I","e","v","c","n",1,1,NA,"switch","red","black","black","nonincentive",2000,1,800,1,1,412591,417091,417891,111458,21,301.133,305.633,306.433,28.417,274.434,520.433,246.034,492.033,738.016
"pro","cue",1,"197449","pro_cue_run1_197449","B1","o","c","c","l",2,2,NA,"switch","red","black","black","nonincentive",2000,1,1188,2,2,423375,427891,429079,111458,22,311.917,316.433,317.621,28.417,274.434,520.433,246.034,492.033,738.016
"pro","cue",1,"197449","pro_cue_run1_197449","2A","e","v","c","l",1,1,NA,"stay","red","black","black","nonincentive",4400,1,2718,1,1,434175,438691,441409,111458,23,322.717,327.233,329.951,28.417,274.434,520.433,246.034,492.033,738.016
"pro","cue",1,"197449","pro_cue_run1_197449","2B","e","c","i","l",1,2,NA,"stay","red","black","black","nonincentive",3200,0,0,NA,2,447391,451875,0,111458,24,335.933,340.417,-111.458,28.417,274.434,520.433,246.034,492.033,738.016
"pro","cue",1,"197449","pro_cue_run1_197449","1B","o","c","c","n",2,2,NA,"switch","red","black","black","nonincentive",3200,1,1143,2,2,459375,463891,465034,111458,25,347.917,352.433,353.576,28.417,274.434,520.433,246.034,492.033,738.016
"pro","cue",1,"197449","pro_cue_run1_197449","2A","e","v","c","l",1,1,NA,"switch","red","black","black","nonincentive",4400,0,0,NA,1,471391,475875,0,111458,26,359.933,364.417,-111.458,28.417,274.434,520.433,246.034,492.033,738.016
"pro","cue",1,"197449","pro_cue_run1_197449","3E","o","v","i","n",2,1,"yes","switch","green","black","green","incentive",3200,1,1162,2,2,484575,489091,490253,111458,27,373.117,377.633,378.795,28.417,274.434,520.433,246.034,492.033,738.016
"pro","cue",1,"197449","pro_cue_run1_197449","5H","o","c","c","n",2,2,"yes","stay","green","black","green","incentive",4400,1,1808,2,2,496575,501091,502899,111458,28,385.117,389.633,391.441,28.417,274.434,520.433,246.034,492.033,738.016
"pro","cue",1,"197449","pro_cue_run1_197449","E3","o","v","i","n",2,1,"no.resp","stay","green","black","green","incentive",3200,0,0,NA,2,509791,514275,0,111458,29,398.333,402.817,-111.458,28.417,274.434,520.433,246.034,492.033,738.016
"pro","cue",1,"197449","pro_cue_run1_197449","E3","o","v","i","n",2,1,"yes","stay","green","black","green","incentive",2000,1,1391,2,2,521775,526291,527682,111458,30,410.317,414.833,416.224,28.417,274.434,520.433,246.034,492.033,738.016
"pro","cue",1,"197449","pro_cue_run1_197449","1B","o","c","c","l",2,2,NA,"switch","red","black","black","nonincentive",3200,1,1393,2,2,532591,537091,538484,111458,31,421.133,425.633,427.026,28.417,274.434,520.433,246.034,492.033,738.016
"pro","cue",1,"197449","pro_cue_run1_197449","2A","e","v","c","n",1,1,NA,"switch","red","black","black","nonincentive",4400,1,841,1,1,544591,549075,549916,111458,32,433.133,437.617,438.458,28.417,274.434,520.433,246.034,492.033,738.016
"pro","cue",1,"197449","pro_cue_run1_197449","D4","e","c","i","l",1,2,"no.resp","switch","green","black","green","incentive",3200,0,0,NA,2,557775,562291,0,111458,33,446.317,450.833,-111.458,28.417,274.434,520.433,246.034,492.033,738.016
"pro","cue",1,"197449","pro_cue_run1_197449","3E","o","v","i","l",2,1,"no.resp","stay","green","black","green","incentive",2000,0,0,NA,1,569791,574275,0,111458,34,458.333,462.817,-111.458,28.417,274.434,520.433,246.034,492.033,738.016
"pro","cue",1,"197449","pro_cue_run1_197449","A2","e","v","c","n",1,1,NA,"switch","red","black","black","nonincentive",4400,1,1038,1,1,580591,585075,586113,111458,35,469.133,473.617,474.655,28.417,274.434,520.433,246.034,492.033,738.016
"pro","cue",1,"197449","pro_cue_run1_197449","I6","e","v","c","l",1,1,NA,"switch","red","black","black","nonincentive",2000,1,855,1,1,593775,598291,599146,111458,36,482.317,486.833,487.688,28.417,274.434,520.433,246.034,492.033,738.016
"pro","cue",1,"197449","pro_cue_run1_197449","2A","e","v","c","l",1,1,NA,NA,"red","black","black","nonincentive",2000,1,1905,1,1,634591,639091,640996,111458,37,523.133,527.633,529.538,28.417,274.434,520.433,246.034,492.033,738.016
"pro","cue",1,"197449","pro_cue_run1_197449","1B","o","c","c","l",2,2,NA,"stay","red","black","black","nonincentive",3200,0,2773,1,2,645375,649891,652664,111458,38,533.917,538.433,541.206,28.417,274.434,520.433,246.034,492.033,738.016
"pro","cue",1,"197449","pro_cue_run1_197449","2A","e","v","c","n",1,1,NA,"switch","red","black","black","nonincentive",2000,1,2465,1,1,657391,661891,664356,111458,39,545.933,550.433,552.898,28.417,274.434,520.433,246.034,492.033,738.016
"pro","cue",1,"197449","pro_cue_run1_197449","A2","e","v","c","l",1,1,NA,"switch","red","black","black","nonincentive",4400,1,619,1,1,668191,672675,673294,111458,40,556.733,561.217,561.836,28.417,274.434,520.433,246.034,492.033,738.016
"pro","cue",1,"197449","pro_cue_run1_197449","3E","o","v","i","l",2,1,"no.resp","stay","green","black","green","incentive",2000,0,3143,2,1,681375,685891,689034,111458,41,569.917,574.433,577.576,28.417,274.434,520.433,246.034,492.033,738.016
"pro","cue",1,"197449","pro_cue_run1_197449","1A","o","v","i","n",2,1,NA,"switch","red","black","black","nonincentive",3200,0,0,NA,2,692191,696691,0,111458,42,580.733,585.233,-111.458,28.417,274.434,520.433,246.034,492.033,738.016
"pro","cue",1,"197449","pro_cue_run1_197449","B1","o","c","c","l",2,2,NA,"switch","red","black","black","nonincentive",3200,1,1092,2,2,704191,708675,709767,111458,43,592.733,597.217,598.309,28.417,274.434,520.433,246.034,492.033,738.016
"pro","cue",1,"197449","pro_cue_run1_197449","A2","e","v","c","n",1,1,NA,"switch","red","black","black","nonincentive",4400,1,1343,1,1,716175,720691,722034,111458,44,604.717,609.233,610.576,28.417,274.434,520.433,246.034,492.033,738.016
"pro","cue",1,"197449","pro_cue_run1_197449","B1","o","c","c","n",2,2,NA,"stay","red","black","black","nonincentive",4400,1,1844,2,2,729391,733875,735719,111458,45,617.933,622.417,624.261,28.417,274.434,520.433,246.034,492.033,738.016
"pro","cue",1,"197449","pro_cue_run1_197449","1B","o","c","c","n",2,2,NA,"stay","red","black","black","nonincentive",2000,1,1211,2,2,742575,747091,748302,111458,46,631.117,635.633,636.844,28.417,274.434,520.433,246.034,492.033,738.016
"pro","cue",1,"197449","pro_cue_run1_197449","3E","o","v","i","n",2,1,"yes","stay","green","black","green","incentive",2000,1,864,2,2,753375,757891,758755,111458,47,641.917,646.433,647.297,28.417,274.434,520.433,246.034,492.033,738.016
"pro","cue",1,"197449","pro_cue_run1_197449","6I","e","v","c","l",1,1,NA,"switch","red","black","black","nonincentive",4400,1,847,1,1,764191,768675,769522,111458,48,652.733,657.217,658.064,28.417,274.434,520.433,246.034,492.033,738.016
"pro","cue",1,"197449","pro_cue_run1_197449","E3","o","v","i","l",2,1,"no.resp","stay","green","black","green","incentive",3200,0,0,NA,1,777391,781891,0,111458,49,665.933,670.433,-111.458,28.417,274.434,520.433,246.034,492.033,738.016
"pro","cue",1,"197449","pro_cue_run1_197449","4D","e","c","i","l",1,2,"yes","stay","green","black","green","incentive",4400,1,1049,2,2,789374,793891,794940,111458,50,677.916,682.433,683.482,28.417,274.434,520.433,246.034,492.033,738.016
"pro","cue",1,"197449","pro_cue_run1_197449","4D","e","c","i","n",1,2,"no.resp","switch","green","black","green","incentive",3200,0,0,NA,1,802591,807074,0,111458,51,691.133,695.616,-111.458,28.417,274.434,520.433,246.034,492.033,738.016
"pro","cue",1,"197449","pro_cue_run1_197449","6I","e","v","c","n",1,1,NA,"stay","red","black","black","nonincentive",3200,1,880,1,1,814574,819091,819971,111458,52,703.116,707.633,708.513,28.417,274.434,520.433,246.034,492.033,738.016
"pro","cue",1,"197449","pro_cue_run1_197449","H5","o","c","c","n",2,2,NA,"stay","red","black","black","nonincentive",2000,1,837,2,2,826591,831074,831911,111458,53,715.133,719.616,720.453,28.417,274.434,520.433,246.034,492.033,738.016
"pro","cue",1,"197449","pro_cue_run1_197449","H5","o","c","c","l",2,2,"too.slow","switch","green","black","green","incentive",4400,1,3130,2,2,837391,841874,845004,111458,54,725.933,730.416,733.546,28.417,274.434,520.433,246.034,492.033,738.016
"pro","cue",2,"197449","pro_cue_run2_197449","A2","e","v","c","l",1,1,NA,NA,"red","black","black","nonincentive",2000,1,1456,1,1,78336,82869,84325,47216,1,31.12,35.653,37.109,28.453,274.453,520.436,246.036,492.036,738.052
"pro","cue",2,"197449","pro_cue_run2_197449","6I","e","v","c","n",1,1,NA,"switch","red","black","black","nonincentive",2000,1,770,1,1,89136,93669,94439,47216,2,41.92,46.453,47.223,28.453,274.453,520.436,246.036,492.036,738.052
"pro","cue",2,"197449","pro_cue_run2_197449","1B","o","c","c","l",2,2,NA,"switch","red","black","black","nonincentive",3200,1,1126,2,2,99952,104452,105578,47216,3,52.736,57.236,58.362,28.453,274.453,520.436,246.036,492.036,738.052
"pro","cue",2,"197449","pro_cue_run2_197449","4D","e","c","i","l",1,2,"yes","stay","green","black","green","incentive",3200,1,923,2,2,111952,116469,117392,47216,4,64.736,69.253,70.176,28.453,274.453,520.436,246.036,492.036,738.052
"pro","cue",2,"197449","pro_cue_run2_197449","E3","o","v","i","l",2,1,"error","stay","green","black","green","incentive",4400,0,1278,2,1,123936,128469,129747,47216,5,76.72,81.253,82.531,28.453,274.453,520.436,246.036,492.036,738.052
"pro","cue",2,"197449","pro_cue_run2_197449","6I","e","v","c","l",1,1,"error","stay","green","black","green","incentive",4400,0,1041,2,1,137152,141652,142693,47216,6,89.936,94.436,95.477,28.453,274.453,520.436,246.036,492.036,738.052
"pro","cue",2,"197449","pro_cue_run2_197449","A2","e","v","c","n",1,1,NA,"switch","red","black","black","nonincentive",4400,1,1400,1,1,150336,154869,156269,47216,7,103.12,107.653,109.053,28.453,274.453,520.436,246.036,492.036,738.052
"pro","cue",2,"197449","pro_cue_run2_197449","E3","o","v","i","n",2,1,"yes","stay","green","black","green","incentive",3200,1,1479,2,2,163569,168052,169531,47216,8,116.353,120.836,122.315,28.453,274.453,520.436,246.036,492.036,738.052
"pro","cue",2,"197449","pro_cue_run2_197449","5H","o","c","c","n",2,2,NA,"stay","red","black","black","nonincentive",2000,0,0,NA,2,175552,180069,0,47216,9,128.336,132.853,-47.216,28.453,274.453,520.436,246.036,492.036,738.052
"pro","cue",2,"197449","pro_cue_run2_197449","B2","e","c","i","l",1,2,NA,"switch","red","black","black","nonincentive",3200,1,1462,2,2,186352,190869,192331,47216,10,139.136,143.653,145.115,28.453,274.453,520.436,246.036,492.036,738.052
"pro","cue",2,"197449","pro_cue_run2_197449","B1","o","c","c","l",2,2,NA,"stay","red","black","black","nonincentive",2000,1,1161,2,2,198369,202852,204013,47216,11,151.153,155.636,156.797,28.453,274.453,520.436,246.036,492.036,738.052
"pro","cue",2,"197449","pro_cue_run2_197449","D4","e","c","i","n",1,2,"error","switch","green","black","green","incentive",4400,0,1119,2,1,209169,213669,214788,47216,12,161.953,166.453,167.572,28.453,274.453,520.436,246.036,492.036,738.052
"pro","cue",2,"197449","pro_cue_run2_197449","H5","o","c","c","l",2,2,NA,"switch","red","black","black","nonincentive",4400,1,2245,2,2,222352,226869,229114,47216,13,175.136,179.653,181.898,28.453,274.453,520.436,246.036,492.036,738.052
"pro","cue",2,"197449","pro_cue_run2_197449","2A","e","v","c","n",1,1,NA,"switch","red","black","black","nonincentive",3200,1,762,1,1,235569,240052,240814,47216,14,188.353,192.836,193.598,28.453,274.453,520.436,246.036,492.036,738.052
"pro","cue",2,"197449","pro_cue_run2_197449","2A","e","v","c","l",1,1,NA,"switch","red","black","black","nonincentive",2000,1,1002,1,1,247552,252069,253071,47216,15,200.336,204.853,205.855,28.453,274.453,520.436,246.036,492.036,738.052
"pro","cue",2,"197449","pro_cue_run2_197449","3E","o","v","i","n",2,1,"no.resp","switch","green","black","green","incentive",3200,0,0,NA,2,258369,262869,0,47216,16,211.153,215.653,-47.216,28.453,274.453,520.436,246.036,492.036,738.052
"pro","cue",2,"197449","pro_cue_run2_197449","B1","o","c","c","n",2,2,NA,"stay","red","black","black","nonincentive",4400,1,1588,2,2,270369,274852,276440,47216,17,223.153,227.636,229.224,28.453,274.453,520.436,246.036,492.036,738.052
"pro","cue",2,"197449","pro_cue_run2_197449","1B","o","c","c","n",2,2,NA,"stay","red","black","black","nonincentive",2000,1,631,2,2,283552,288069,288700,47216,18,236.336,240.853,241.484,28.453,274.453,520.436,246.036,492.036,738.052
"pro","cue",2,"197449","pro_cue_run2_197449","1A","o","v","i","n",2,1,NA,NA,"red","black","black","nonincentive",4400,0,3093,1,2,324369,328852,331945,47216,19,277.153,281.636,284.729,28.453,274.453,520.436,246.036,492.036,738.052
"pro","cue",2,"197449","pro_cue_run2_197449","H5","o","c","c","l",2,2,NA,"switch","red","black","black","nonincentive",4400,1,1486,2,2,337552,342069,343555,47216,20,290.336,294.853,296.339,28.453,274.453,520.436,246.036,492.036,738.052
"pro","cue",2,"197449","pro_cue_run2_197449","B1","o","c","c","n",2,2,NA,"switch","red","black","black","nonincentive",2000,1,568,2,2,350769,355252,355820,47216,21,303.553,308.036,308.604,28.453,274.453,520.436,246.036,492.036,738.052
"pro","cue",2,"197449","pro_cue_run2_197449","2A","e","v","c","l",1,1,NA,"switch","red","black","black","nonincentive",3200,0,1880,2,1,361552,366069,367949,47216,22,314.336,318.853,320.733,28.453,274.453,520.436,246.036,492.036,738.052
"pro","cue",2,"197449","pro_cue_run2_197449","1B","o","c","c","l",2,2,NA,"stay","red","black","black","nonincentive",3200,0,0,NA,2,373569,378069,0,47216,23,326.353,330.853,-47.216,28.453,274.453,520.436,246.036,492.036,738.052
"pro","cue",2,"197449","pro_cue_run2_197449","D4","e","c","i","n",1,2,"yes","switch","green","black","green","incentive",2000,1,980,1,1,385569,390052,391032,47216,24,338.353,342.836,343.816,28.453,274.453,520.436,246.036,492.036,738.052
"pro","cue",2,"197449","pro_cue_run2_197449","I6","e","v","c","n",1,1,"too.slow","stay","green","black","green","incentive",4400,1,2687,1,1,396369,400869,403556,47216,25,349.153,353.653,356.34,28.453,274.453,520.436,246.036,492.036,738.052
"pro","cue",2,"197449","pro_cue_run2_197449","B1","o","c","c","l",2,2,NA,"switch","red","black","black","nonincentive",2000,0,693,1,2,409569,414069,414762,47216,26,362.353,366.853,367.546,28.453,274.453,520.436,246.036,492.036,738.052
"pro","cue",2,"197449","pro_cue_run2_197449","2A","e","v","c","n",1,1,NA,"switch","red","black","black","nonincentive",3200,0,1259,2,1,420369,424852,426111,47216,27,373.153,377.636,378.895,28.453,274.453,520.436,246.036,492.036,738.052
"pro","cue",2,"197449","pro_cue_run2_197449","D4","e","c","i","l",1,2,"error","switch","green","black","green","incentive",2000,0,2407,1,2,432352,436869,439276,47216,28,385.136,389.653,392.06,28.453,274.453,520.436,246.036,492.036,738.052
"pro","cue",2,"197449","pro_cue_run2_197449","I6","e","v","c","l",1,1,NA,"stay","red","black","black","nonincentive",3200,0,1144,2,1,443152,447669,448813,47216,29,395.936,400.453,401.597,28.453,274.453,520.436,246.036,492.036,738.052
"pro","cue",2,"197449","pro_cue_run2_197449","5H","o","c","c","l",2,2,"too.slow","stay","green","black","green","incentive",4400,1,2917,2,2,455169,459652,462569,47216,30,407.953,412.436,415.353,28.453,274.453,520.436,246.036,492.036,738.052
"pro","cue",2,"197449","pro_cue_run2_197449","I6","e","v","c","n",1,1,NA,"switch","red","black","black","nonincentive",3200,0,1550,2,1,468352,472869,474419,47216,31,421.136,425.653,427.203,28.453,274.453,520.436,246.036,492.036,738.052
"pro","cue",2,"197449","pro_cue_run2_197449","4D","e","c","i","n",1,2,"error","stay","green","black","green","incentive",4400,0,1998,2,1,480369,484869,486867,47216,32,433.153,437.653,439.651,28.453,274.453,520.436,246.036,492.036,738.052
"pro","cue",2,"197449","pro_cue_run2_197449","A2","e","v","c","l",1,1,NA,"switch","red","black","black","nonincentive",4400,1,3020,1,1,493569,498069,501089,47216,33,446.353,450.853,453.873,28.453,274.453,520.436,246.036,492.036,738.052
"pro","cue",2,"197449","pro_cue_run2_197449","A2","e","v","c","n",1,1,NA,"switch","red","black","black","nonincentive",2000,1,620,1,1,506752,511268,511888,47216,34,459.536,464.052,464.672,28.453,274.453,520.436,246.036,492.036,738.052
"pro","cue",2,"197449","pro_cue_run2_197449","2B","e","c","i","n",1,2,NA,"stay","red","black","black","nonincentive",3200,0,0,NA,1,517568,522052,0,47216,35,470.352,474.836,-47.216,28.453,274.453,520.436,246.036,492.036,738.052
"pro","cue",2,"197449","pro_cue_run2_197449","3E","o","v","i","l",2,1,"yes","switch","green","black","green","incentive",2000,1,1024,1,1,529568,534068,535092,47216,36,482.352,486.852,487.876,28.453,274.453,520.436,246.036,492.036,738.052
"pro","cue",2,"197449","pro_cue_run2_197449","B1","o","c","c","l",2,2,NA,NA,"red","black","black","nonincentive",3200,0,0,NA,2,570368,574852,0,47216,37,523.152,527.636,-47.216,28.453,274.453,520.436,246.036,492.036,738.052
"pro","cue",2,"197449","pro_cue_run2_197449","5H","o","c","c","n",2,2,NA,"switch","red","black","black","nonincentive",2000,1,1258,2,2,582368,586868,588126,47216,38,535.152,539.652,540.91,28.453,274.453,520.436,246.036,492.036,738.052
"pro","cue",2,"197449","pro_cue_run2_197449","A2","e","v","c","n",1,1,NA,"stay","red","black","black","nonincentive",3200,1,2815,1,1,593152,597668,600483,47216,39,545.936,550.452,553.267,28.453,274.453,520.436,246.036,492.036,738.052
"pro","cue",2,"197449","pro_cue_run2_197449","4D","e","c","i","n",1,2,"no.resp","stay","green","black","green","incentive",4400,0,0,NA,1,605168,609668,0,47216,40,557.952,562.452,-47.216,28.453,274.453,520.436,246.036,492.036,738.052
"pro","cue",2,"197449","pro_cue_run2_197449","4D","e","c","i","l",1,2,"too.slow","switch","green","black","green","incentive",2000,1,2786,2,2,618368,622868,625654,47216,41,571.152,575.652,578.438,28.453,274.453,520.436,246.036,492.036,738.052
"pro","cue",2,"197449","pro_cue_run2_197449","H5","o","c","c","l",2,2,NA,"stay","red","black","black","nonincentive",2000,1,3001,2,2,629152,633668,636669,47216,42,581.936,586.452,589.453,28.453,274.453,520.436,246.036,492.036,738.052
"pro","cue",2,"197449","pro_cue_run2_197449","1B","o","c","c","l",2,2,NA,"stay","red","black","black","nonincentive",3200,0,0,NA,2,639952,644468,0,47216,43,592.736,597.252,-47.216,28.453,274.453,520.436,246.036,492.036,738.052
"pro","cue",2,"197449","pro_cue_run2_197449","D4","e","c","i","l",1,2,"yes","stay","green","black","green","incentive",4400,1,773,2,2,651968,656452,657225,47216,44,604.752,609.236,610.009,28.453,274.453,520.436,246.036,492.036,738.052
"pro","cue",2,"197449","pro_cue_run2_197449","A2","e","v","c","l",1,1,NA,"stay","red","black","black","nonincentive",4400,1,582,1,1,665152,669668,670250,47216,45,617.936,622.452,623.034,28.453,274.453,520.436,246.036,492.036,738.052
"pro","cue",2,"197449","pro_cue_run2_197449","H5","o","c","c","n",2,2,"yes","switch","green","black","green","incentive",4400,1,985,2,2,678368,682852,683837,47216,46,631.152,635.636,636.621,28.453,274.453,520.436,246.036,492.036,738.052
"pro","cue",2,"197449","pro_cue_run2_197449","B1","o","c","c","n",2,2,NA,"stay","red","black","black","nonincentive",4400,0,2859,1,2,691552,696068,698927,47216,47,644.336,648.852,651.711,28.453,274.453,520.436,246.036,492.036,738.052
"pro","cue",2,"197449","pro_cue_run2_197449","2A","e","v","c","n",1,1,NA,"stay","red","black","black","nonincentive",3200,1,943,1,1,704768,709252,710195,47216,48,657.552,662.036,662.979,28.453,274.453,520.436,246.036,492.036,738.052
"pro","cue",2,"197449","pro_cue_run2_197449","A1","o","v","i","l",2,1,NA,"switch","red","black","black","nonincentive",2000,1,1252,1,1,716752,721268,722520,47216,49,669.536,674.052,675.304,28.453,274.453,520.436,246.036,492.036,738.052
"pro","cue",2,"197449","pro_cue_run2_197449","E3","o","v","i","l",2,1,"error","stay","green","black","green","incentive",2000,0,1396,2,1,727552,732068,733464,47216,50,680.336,684.852,686.248,28.453,274.453,520.436,246.036,492.036,738.052
"pro","cue",2,"197449","pro_cue_run2_197449","6I","e","v","c","n",1,1,NA,"switch","red","black","black","nonincentive",4400,1,639,1,1,738368,742868,743507,47216,51,691.152,695.652,696.291,28.453,274.453,520.436,246.036,492.036,738.052
"pro","cue",2,"197449","pro_cue_run2_197449","3E","o","v","i","n",2,1,"no.resp","stay","green","black","green","incentive",2000,0,0,NA,2,751568,756068,0,47216,52,704.352,708.852,-47.216,28.453,274.453,520.436,246.036,492.036,738.052
"pro","cue",2,"197449","pro_cue_run2_197449","1B","o","c","c","n",2,2,NA,"stay","red","black","black","nonincentive",3200,1,1742,2,2,762352,766868,768610,47216,53,715.136,719.652,721.394,28.453,274.453,520.436,246.036,492.036,738.052
"pro","cue",2,"197449","pro_cue_run2_197449","2B","e","c","i","l",1,2,NA,"switch","red","black","black","nonincentive",3200,0,1381,1,2,774368,778852,780233,47216,54,727.152,731.636,733.017,28.453,274.453,520.436,246.036,492.036,738.052
"rea","cue",1,"197449","rea_cue_run1_197449","I6","e","v","c","l",1,1,"yes",NA,"red","green","green","incentive",2000,1,1996,1,1,153655,158155,160151,122504,1,31.151,35.651,37.647,28.451,274.435,520.451,246.035,492.051,738.051
"rea","cue",1,"197449","rea_cue_run1_197449","D4","e","c","i","n",1,2,"yes","switch","red","green","green","incentive",3200,1,1777,1,1,164439,168955,170732,122504,2,41.935,46.451,48.228,28.451,274.435,520.451,246.035,492.051,738.051
"rea","cue",1,"197449","rea_cue_run1_197449","B1","o","c","c","n",2,2,NA,"stay","red","black","black","nonincentive",3200,1,1798,2,2,176455,180955,182753,122504,3,53.951,58.451,60.249,28.451,274.435,520.451,246.035,492.051,738.051
"rea","cue",1,"197449","rea_cue_run1_197449","1B","o","c","c","l",2,2,NA,"switch","red","black","black","nonincentive",4400,1,1408,2,2,188455,192939,194347,122504,4,65.951,70.435,71.843,28.451,274.435,520.451,246.035,492.051,738.051
"rea","cue",1,"197449","rea_cue_run1_197449","1A","o","v","i","l",2,1,NA,"stay","red","black","black","nonincentive",3200,1,1537,1,1,201639,206155,207692,122504,5,79.135,83.651,85.188,28.451,274.435,520.451,246.035,492.051,738.051
"rea","cue",1,"197449","rea_cue_run1_197449","A2","e","v","c","l",1,1,NA,"stay","red","black","black","nonincentive",4400,1,1678,1,1,213655,218139,219817,122504,6,91.151,95.635,97.313,28.451,274.435,520.451,246.035,492.051,738.051
"rea","cue",1,"197449","rea_cue_run1_197449","A2","e","v","c","n",1,1,NA,"switch","red","black","black","nonincentive",4400,1,1131,1,1,226839,231355,232486,122504,7,104.335,108.851,109.982,28.451,274.435,520.451,246.035,492.051,738.051
"rea","cue",1,"197449","rea_cue_run1_197449","H5","o","c","c","l",2,2,NA,"switch","red","black","black","nonincentive",2000,1,1296,2,2,240055,244539,245835,122504,8,117.551,122.035,123.331,28.451,274.435,520.451,246.035,492.051,738.051
"rea","cue",1,"197449","rea_cue_run1_197449","E3","o","v","i","l",2,1,"yes","stay","red","green","green","incentive",2000,1,1692,1,1,250855,255339,257031,122504,9,128.351,132.835,134.527,28.451,274.435,520.451,246.035,492.051,738.051
"rea","cue",1,"197449","rea_cue_run1_197449","D4","e","c","i","l",1,2,"yes","stay","red","green","green","incentive",2000,1,2055,2,2,261639,266155,268210,122504,10,139.135,143.651,145.706,28.451,274.435,520.451,246.035,492.051,738.051
"rea","cue",1,"197449","rea_cue_run1_197449","1B","o","c","c","n",2,2,NA,"switch","red","black","black","nonincentive",4400,1,1030,2,2,272439,276955,277985,122504,11,149.935,154.451,155.481,28.451,274.435,520.451,246.035,492.051,738.051
"rea","cue",1,"197449","rea_cue_run1_197449","4D","e","c","i","n",1,2,"error","stay","red","green","green","incentive",3200,0,1786,2,1,285655,290139,291925,122504,12,163.151,167.635,169.421,28.451,274.435,520.451,246.035,492.051,738.051
"rea","cue",1,"197449","rea_cue_run1_197449","6I","e","v","c","n",1,1,"yes","stay","red","green","green","incentive",3200,1,1426,1,1,297639,302155,303581,122504,13,175.135,179.651,181.077,28.451,274.435,520.451,246.035,492.051,738.051
"rea","cue",1,"197449","rea_cue_run1_197449","5H","o","c","c","l",2,2,NA,"switch","red","black","black","nonincentive",4400,1,1057,2,2,309655,314155,315212,122504,14,187.151,191.651,192.708,28.451,274.435,520.451,246.035,492.051,738.051
"rea","cue",1,"197449","rea_cue_run1_197449","I6","e","v","c","n",1,1,NA,"switch","red","black","black","nonincentive",2000,1,1536,1,1,322855,327355,328891,122504,15,200.351,204.851,206.387,28.451,274.435,520.451,246.035,492.051,738.051
"rea","cue",1,"197449","rea_cue_run1_197449","B1","o","c","c","l",2,2,NA,"switch","red","black","black","nonincentive",3200,1,1642,2,2,333639,338155,339797,122504,16,211.135,215.651,217.293,28.451,274.435,520.451,246.035,492.051,738.051
"rea","cue",1,"197449","rea_cue_run1_197449","2A","e","v","c","n",1,1,NA,"switch","red","black","black","nonincentive",4400,1,1461,1,1,345655,350139,351600,122504,17,223.151,227.635,229.096,28.451,274.435,520.451,246.035,492.051,738.051
"rea","cue",1,"197449","rea_cue_run1_197449","B2","e","c","i","n",1,2,NA,"stay","red","black","black","nonincentive",2000,1,1484,1,1,358855,363355,364839,122504,18,236.351,240.851,242.335,28.451,274.435,520.451,246.035,492.051,738.051
"rea","cue",1,"197449","rea_cue_run1_197449","A2","e","v","c","n",1,1,NA,NA,"red","black","black","nonincentive",4400,1,1741,1,1,399655,404139,405880,122504,19,277.151,281.635,283.376,28.451,274.435,520.451,246.035,492.051,738.051
"rea","cue",1,"197449","rea_cue_run1_197449","5H","o","c","c","l",2,2,NA,"switch","red","black","black","nonincentive",2000,1,1348,2,2,412839,417355,418703,122504,20,290.335,294.851,296.199,28.451,274.435,520.451,246.035,492.051,738.051
"rea","cue",1,"197449","rea_cue_run1_197449","3E","o","v","i","l",2,1,"yes","stay","red","green","green","incentive",4400,1,1936,1,1,423639,428155,430091,122504,21,301.135,305.651,307.587,28.451,274.435,520.451,246.035,492.051,738.051
"rea","cue",1,"197449","rea_cue_run1_197449","I6","e","v","c","l",1,1,NA,"stay","red","black","black","nonincentive",3200,1,1168,1,1,436855,441339,442507,122504,22,314.351,318.835,320.003,28.451,274.435,520.451,246.035,492.051,738.051
"rea","cue",1,"197449","rea_cue_run1_197449","D4","e","c","i","l",1,2,"yes","stay","red","green","green","incentive",2000,1,1241,2,2,448839,453355,454596,122504,23,326.335,330.851,332.092,28.451,274.435,520.451,246.035,492.051,738.051
"rea","cue",1,"197449","rea_cue_run1_197449","E3","o","v","i","n",2,1,"yes","switch","red","green","green","incentive",3200,1,1633,2,2,459639,464155,465788,122504,24,337.135,341.651,343.284,28.451,274.435,520.451,246.035,492.051,738.051
"rea","cue",1,"197449","rea_cue_run1_197449","2B","e","c","i","l",1,2,NA,"switch","red","black","black","nonincentive",2000,1,2005,2,2,471655,476139,478144,122504,25,349.151,353.635,355.64,28.451,274.435,520.451,246.035,492.051,738.051
"rea","cue",1,"197449","rea_cue_run1_197449","2A","e","v","c","n",1,1,NA,"switch","red","black","black","nonincentive",3200,1,1863,1,1,482455,486955,488818,122504,26,359.951,364.451,366.314,28.451,274.435,520.451,246.035,492.051,738.051
"rea","cue",1,"197449","rea_cue_run1_197449","E3","o","v","i","n",2,1,"yes","stay","red","green","green","incentive",4400,1,1499,2,2,494439,498955,500454,122504,27,371.935,376.451,377.95,28.451,274.435,520.451,246.035,492.051,738.051
"rea","cue",1,"197449","rea_cue_run1_197449","6I","e","v","c","n",1,1,NA,"stay","red","black","black","nonincentive",3200,1,3140,1,1,507655,512139,515279,122504,28,385.151,389.635,392.775,28.451,274.435,520.451,246.035,492.051,738.051
"rea","cue",1,"197449","rea_cue_run1_197449","2A","e","v","c","l",1,1,NA,"switch","red","black","black","nonincentive",3200,1,2794,1,1,519639,524155,526949,122504,29,397.135,401.651,404.445,28.451,274.435,520.451,246.035,492.051,738.051
"rea","cue",1,"197449","rea_cue_run1_197449","B1","o","c","c","l",2,2,NA,"stay","red","black","black","nonincentive",2000,1,1403,2,2,531655,536155,537558,122504,30,409.151,413.651,415.054,28.451,274.435,520.451,246.035,492.051,738.051
"rea","cue",1,"197449","rea_cue_run1_197449","3E","o","v","i","n",2,1,"yes","switch","red","green","green","incentive",4400,1,1234,2,2,542455,546939,548173,122504,31,419.951,424.435,425.669,28.451,274.435,520.451,246.035,492.051,738.051
"rea","cue",1,"197449","rea_cue_run1_197449","1B","o","c","c","l",2,2,NA,"switch","red","black","black","nonincentive",2000,1,790,2,2,555639,560155,560945,122504,32,433.135,437.651,438.441,28.451,274.435,520.451,246.035,492.051,738.051
"rea","cue",1,"197449","rea_cue_run1_197449","1B","o","c","c","n",2,2,NA,"switch","red","black","black","nonincentive",3200,1,760,2,2,566439,570955,571715,122504,33,443.935,448.451,449.211,28.451,274.435,520.451,246.035,492.051,738.051
"rea","cue",1,"197449","rea_cue_run1_197449","5H","o","c","c","n",2,2,"yes","stay","red","green","green","incentive",4400,1,1968,2,2,578455,582939,584907,122504,34,455.951,460.435,462.403,28.451,274.435,520.451,246.035,492.051,738.051
"rea","cue",1,"197449","rea_cue_run1_197449","2A","e","v","c","l",1,1,NA,"switch","red","black","black","nonincentive",2000,1,1342,1,1,591639,596155,597497,122504,35,469.135,473.651,474.993,28.451,274.435,520.451,246.035,492.051,738.051
"rea","cue",1,"197449","rea_cue_run1_197449","A1","o","v","i","n",2,1,NA,"switch","red","black","black","nonincentive",4400,0,886,1,2,602455,606955,607841,122504,36,479.951,484.451,485.337,28.451,274.435,520.451,246.035,492.051,738.051
"rea","cue",1,"197449","rea_cue_run1_197449","B1","o","c","c","l",2,2,NA,NA,"red","black","black","nonincentive",3200,1,1227,2,2,645639,650155,651382,122504,37,523.135,527.651,528.878,28.451,274.435,520.451,246.035,492.051,738.051
"rea","cue",1,"197449","rea_cue_run1_197449","2A","e","v","c","n",1,1,NA,"switch","red","black","black","nonincentive",2000,1,1676,1,1,657655,662139,663815,122504,38,535.151,539.635,541.311,28.451,274.435,520.451,246.035,492.051,738.051
"rea","cue",1,"197449","rea_cue_run1_197449","3E","o","v","i","l",2,1,"yes","switch","red","green","green","incentive",3200,1,1714,1,1,668455,672939,674653,122504,39,545.951,550.435,552.149,28.451,274.435,520.451,246.035,492.051,738.051
"rea","cue",1,"197449","rea_cue_run1_197449","E3","o","v","i","l",2,1,"yes","stay","red","green","green","incentive",4400,1,1480,1,1,680439,684955,686435,122504,40,557.935,562.451,563.931,28.451,274.435,520.451,246.035,492.051,738.051
"rea","cue",1,"197449","rea_cue_run1_197449","B1","o","c","c","n",2,2,NA,"switch","red","black","black","nonincentive",2000,1,1697,2,2,693655,698139,699836,122504,41,571.151,575.635,577.332,28.451,274.435,520.451,246.035,492.051,738.051
"rea","cue",1,"197449","rea_cue_run1_197449","6I","e","v","c","l",1,1,NA,"switch","red","black","black","nonincentive",2000,0,0,NA,1,704455,708955,0,122504,42,581.951,586.451,-122.504,28.451,274.435,520.451,246.035,492.051,738.051
"rea","cue",1,"197449","rea_cue_run1_197449","A2","e","v","c","l",1,1,NA,"stay","red","black","black","nonincentive",4400,1,1555,1,1,715239,719755,721310,122504,43,592.735,597.251,598.806,28.451,274.435,520.451,246.035,492.051,738.051
"rea","cue",1,"197449","rea_cue_run1_197449","H5","o","c","c","l",2,2,"yes","stay","red","green","green","incentive",3200,1,1870,2,2,728455,732939,734809,122504,44,605.951,610.435,612.305,28.451,274.435,520.451,246.035,492.051,738.051
"rea","cue",1,"197449","rea_cue_run1_197449","4D","e","c","i","n",1,2,"error","switch","red","green","green","incentive",4400,0,1570,2,1,740455,744955,746525,122504,45,617.951,622.451,624.021,28.451,274.435,520.451,246.035,492.051,738.051
"rea","cue",1,"197449","rea_cue_run1_197449","H5","o","c","c","n",2,2,NA,"stay","red","black","black","nonincentive",3200,1,783,2,2,753655,758155,758938,122504,46,631.151,635.651,636.434,28.451,274.435,520.451,246.035,492.051,738.051
"rea","cue",1,"197449","rea_cue_run1_197449","3E","o","v","i","n",2,1,"yes","stay","red","green","green","incentive",2000,1,1904,2,2,765655,770139,772043,122504,47,643.151,647.635,649.539,28.451,274.435,520.451,246.035,492.051,738.051
"rea","cue",1,"197449","rea_cue_run1_197449","6I","e","v","c","n",1,1,NA,"stay","red","black","black","nonincentive",2000,1,1778,1,1,776455,780955,782733,122504,48,653.951,658.451,660.229,28.451,274.435,520.451,246.035,492.051,738.051
"rea","cue",1,"197449","rea_cue_run1_197449","1A","o","v","i","n",2,1,NA,"stay","red","black","black","nonincentive",3200,1,1843,2,2,787239,791755,793598,122504,49,664.735,669.251,671.094,28.451,274.435,520.451,246.035,492.051,738.051
"rea","cue",1,"197449","rea_cue_run1_197449","1B","o","c","c","n",2,2,NA,"stay","red","black","black","nonincentive",4400,1,1684,2,2,799255,803739,805423,122504,50,676.751,681.235,682.919,28.451,274.435,520.451,246.035,492.051,738.051
"rea","cue",1,"197449","rea_cue_run1_197449","2A","e","v","c","l",1,1,NA,"switch","red","black","black","nonincentive",2000,1,2145,1,1,812439,816955,819100,122504,51,689.935,694.451,696.596,28.451,274.435,520.451,246.035,492.051,738.051
"rea","cue",1,"197449","rea_cue_run1_197449","A2","e","v","c","n",1,1,NA,"switch","red","black","black","nonincentive",4400,0,0,NA,1,823239,827755,0,122504,52,700.735,705.251,-122.504,28.451,274.435,520.451,246.035,492.051,738.051
"rea","cue",1,"197449","rea_cue_run1_197449","4D","e","c","i","l",1,2,"yes","switch","red","green","green","incentive",3200,1,1287,2,2,836455,840939,842226,122504,53,713.951,718.435,719.722,28.451,274.435,520.451,246.035,492.051,738.051
"rea","cue",1,"197449","rea_cue_run1_197449","1B","o","c","c","l",2,2,NA,"stay","red","black","black","nonincentive",4400,1,1126,2,2,848439,852955,854081,122504,54,725.935,730.451,731.577,28.451,274.435,520.451,246.035,492.051,738.051
"rea","cue",2,"197449","rea_cue_run2_197449","1B","o","c","c","l",2,2,NA,NA,"red","black","black","nonincentive",4400,1,837,2,2,71134,75651,76488,39995,1,31.139,35.656,36.493,28.439,274.456,520.456,246.073,492.056,738.073
"rea","cue",2,"197449","rea_cue_run2_197449","1B","o","c","c","n",2,2,NA,"switch","red","black","black","nonincentive",3200,1,833,2,2,84351,88834,89667,39995,2,44.356,48.839,49.672,28.439,274.456,520.456,246.073,492.056,738.073
"rea","cue",2,"197449","rea_cue_run2_197449","H5","o","c","c","l",2,2,NA,"switch","red","black","black","nonincentive",2000,1,1407,2,2,96334,100851,102258,39995,3,56.339,60.856,62.263,28.439,274.456,520.456,246.073,492.056,738.073
"rea","cue",2,"197449","rea_cue_run2_197449","E3","o","v","i","l",2,1,"yes","stay","red","green","green","incentive",2000,1,1565,1,1,107151,111651,113216,39995,4,67.156,71.656,73.221,28.439,274.456,520.456,246.073,492.056,738.073
"rea","cue",2,"197449","rea_cue_run2_197449","A2","e","v","c","l",1,1,NA,"stay","red","black","black","nonincentive",2000,1,1447,1,1,117951,122434,123881,39995,5,77.956,82.439,83.886,28.439,274.456,520.456,246.073,492.056,738.073
"rea","cue",2,"197449","rea_cue_run2_197449","6I","e","v","c","l",1,1,"yes","stay","red","green","green","incentive",4400,1,2340,1,1,128751,133234,135574,39995,6,88.756,93.239,95.579,28.439,274.456,520.456,246.073,492.056,738.073
"rea","cue",2,"197449","rea_cue_run2_197449","B1","o","c","c","n",2,2,NA,"switch","red","black","black","nonincentive",4400,0,2551,1,2,141934,146451,149002,39995,7,101.939,106.456,109.007,28.439,274.456,520.456,246.073,492.056,738.073
"rea","cue",2,"197449","rea_cue_run2_197449","B2","e","c","i","l",1,2,NA,"switch","red","black","black","nonincentive",3200,1,888,2,2,155151,159634,160522,39995,8,115.156,119.639,120.527,28.439,274.456,520.456,246.073,492.056,738.073
"rea","cue",2,"197449","rea_cue_run2_197449","A2","e","v","c","n",1,1,NA,"switch","red","black","black","nonincentive",3200,1,869,1,1,167134,171651,172520,39995,9,127.139,131.656,132.525,28.439,274.456,520.456,246.073,492.056,738.073
"rea","cue",2,"197449","rea_cue_run2_197449","2A","e","v","c","l",1,1,NA,"switch","red","black","black","nonincentive",3200,1,843,1,1,179151,183634,184477,39995,10,139.156,143.639,144.482,28.439,274.456,520.456,246.073,492.056,738.073
"rea","cue",2,"197449","rea_cue_run2_197449","D4","e","c","i","n",1,2,"yes","switch","red","green","green","incentive",2000,1,1742,1,1,191151,195651,197393,39995,11,151.156,155.656,157.398,28.439,274.456,520.456,246.073,492.056,738.073
"rea","cue",2,"197449","rea_cue_run2_197449","B1","o","c","c","l",2,2,NA,"switch","red","black","black","nonincentive",2000,1,990,2,2,201934,206451,207441,39995,12,161.939,166.456,167.446,28.439,274.456,520.456,246.073,492.056,738.073
"rea","cue",2,"197449","rea_cue_run2_197449","2A","e","v","c","n",1,1,NA,"switch","red","black","black","nonincentive",4400,1,1863,1,1,212734,217251,219114,39995,13,172.739,177.256,179.119,28.439,274.456,520.456,246.073,492.056,738.073
"rea","cue",2,"197449","rea_cue_run2_197449","E3","o","v","i","n",2,1,"yes","stay","red","green","green","incentive",4400,1,2676,2,2,225951,230434,233110,39995,14,185.956,190.439,193.115,28.439,274.456,520.456,246.073,492.056,738.073
"rea","cue",2,"197449","rea_cue_run2_197449","6I","e","v","c","n",1,1,NA,"stay","red","black","black","nonincentive",2000,1,1745,1,1,239134,243651,245396,39995,15,199.139,203.656,205.401,28.439,274.456,520.456,246.073,492.056,738.073
"rea","cue",2,"197449","rea_cue_run2_197449","5H","o","c","c","n",2,2,NA,"stay","red","black","black","nonincentive",3200,1,825,2,2,249951,254434,255259,39995,16,209.956,214.439,215.264,28.439,274.456,520.456,246.073,492.056,738.073
"rea","cue",2,"197449","rea_cue_run2_197449","4D","e","c","i","l",1,2,"yes","switch","red","green","green","incentive",3200,1,1421,2,2,261951,266434,267855,39995,17,221.956,226.439,227.86,28.439,274.456,520.456,246.073,492.056,738.073
"rea","cue",2,"197449","rea_cue_run2_197449","3E","o","v","i","n",2,1,"error","switch","red","green","green","incentive",4400,0,2514,1,2,273934,278451,280965,39995,18,233.939,238.456,240.97,28.439,274.456,520.456,246.073,492.056,738.073
"rea","cue",2,"197449","rea_cue_run2_197449","I6","e","v","c","n",1,1,NA,NA,"red","black","black","nonincentive",3200,1,1392,1,1,317134,321651,323043,39995,19,277.139,281.656,283.048,28.439,274.456,520.456,246.073,492.056,738.073
"rea","cue",2,"197449","rea_cue_run2_197449","A2","e","v","c","l",1,1,NA,"switch","red","black","black","nonincentive",4400,1,1085,1,1,329151,333651,334736,39995,20,289.156,293.656,294.741,28.439,274.456,520.456,246.073,492.056,738.073
"rea","cue",2,"197449","rea_cue_run2_197449","D4","e","c","i","n",1,2,"no.resp","switch","red","green","green","incentive",2000,0,0,NA,1,342351,346851,0,39995,21,302.356,306.856,-39.995,28.439,274.456,520.456,246.073,492.056,738.073
"rea","cue",2,"197449","rea_cue_run2_197449","I6","e","v","c","n",1,1,"yes","stay","red","green","green","incentive",4400,1,960,1,1,353134,357651,358611,39995,22,313.139,317.656,318.616,28.439,274.456,520.456,246.073,492.056,738.073
"rea","cue",2,"197449","rea_cue_run2_197449","B1","o","c","c","n",2,2,NA,"stay","red","black","black","nonincentive",3200,0,1373,1,2,366351,370834,372207,39995,23,326.356,330.839,332.212,28.439,274.456,520.456,246.073,492.056,738.073
"rea","cue",2,"197449","rea_cue_run2_197449","2A","e","v","c","n",1,1,NA,"stay","red","black","black","nonincentive",2000,1,2713,1,1,378351,382851,385564,39995,24,338.356,342.856,345.569,28.439,274.456,520.456,246.073,492.056,738.073
"rea","cue",2,"197449","rea_cue_run2_197449","5H","o","c","c","l",2,2,"error","switch","red","green","green","incentive",2000,0,950,1,2,389134,393651,394601,39995,25,349.139,353.656,354.606,28.439,274.456,520.456,246.073,492.056,738.073
"rea","cue",2,"197449","rea_cue_run2_197449","1B","o","c","c","l",2,2,NA,"stay","red","black","black","nonincentive",3200,1,759,2,2,399951,404451,405210,39995,26,359.956,364.456,365.215,28.439,274.456,520.456,246.073,492.056,738.073
"rea","cue",2,"197449","rea_cue_run2_197449","D4","e","c","i","l",1,2,"yes","stay","red","green","green","incentive",4400,1,1759,2,2,411951,416434,418193,39995,27,371.956,376.439,378.198,28.439,274.456,520.456,246.073,492.056,738.073
"rea","cue",2,"197449","rea_cue_run2_197449","3E","o","v","i","l",2,1,"error","stay","red","green","green","incentive",3200,0,1901,2,1,425134,429651,431552,39995,28,385.139,389.656,391.557,28.439,274.456,520.456,246.073,492.056,738.073
"rea","cue",2,"197449","rea_cue_run2_197449","2B","e","c","i","n",1,2,NA,"switch","red","black","black","nonincentive",4400,0,1099,2,1,437151,441634,442733,39995,29,397.156,401.639,402.738,28.439,274.456,520.456,246.073,492.056,738.073
"rea","cue",2,"197449","rea_cue_run2_197449","4D","e","c","i","n",1,2,"error","stay","red","green","green","incentive",2000,0,2957,2,1,450334,454851,457808,39995,30,410.339,414.856,417.813,28.439,274.456,520.456,246.073,492.056,738.073
"rea","cue",2,"197449","rea_cue_run2_197449","2A","e","v","c","l",1,1,NA,"switch","red","black","black","nonincentive",4400,1,1116,1,1,461134,465651,466767,39995,31,421.139,425.656,426.772,28.439,274.456,520.456,246.073,492.056,738.073
"rea","cue",2,"197449","rea_cue_run2_197449","H5","o","c","c","l",2,2,NA,"stay","red","black","black","nonincentive",3200,1,1201,2,2,474351,478834,480035,39995,32,434.356,438.839,440.04,28.439,274.456,520.456,246.073,492.056,738.073
"rea","cue",2,"197449","rea_cue_run2_197449","I6","e","v","c","l",1,1,NA,"stay","red","black","black","nonincentive",2000,0,1608,2,1,486334,490851,492459,39995,33,446.339,450.856,452.464,28.439,274.456,520.456,246.073,492.056,738.073
"rea","cue",2,"197449","rea_cue_run2_197449","A2","e","v","c","n",1,1,NA,"switch","red","black","black","nonincentive",2000,0,0,NA,1,497134,501651,0,39995,34,457.139,461.656,-39.995,28.439,274.456,520.456,246.073,492.056,738.073
"rea","cue",2,"197449","rea_cue_run2_197449","B1","o","c","c","l",2,2,NA,"switch","red","black","black","nonincentive",3200,1,1182,2,2,507951,512434,513616,39995,35,467.956,472.439,473.621,28.439,274.456,520.456,246.073,492.056,738.073
"rea","cue",2,"197449","rea_cue_run2_197449","1A","o","v","i","n",2,1,NA,"switch","red","black","black","nonincentive",4400,1,1356,2,2,519951,524451,525807,39995,36,479.956,484.456,485.812,28.439,274.456,520.456,246.073,492.056,738.073
"rea","cue",2,"197449","rea_cue_run2_197449","A2","e","v","c","n",1,1,NA,NA,"red","black","black","nonincentive",2000,1,1828,1,1,563151,567634,569462,39995,37,523.156,527.639,529.467,28.439,274.456,520.456,246.073,492.056,738.073
"rea","cue",2,"197449","rea_cue_run2_197449","1B","o","c","c","l",2,2,NA,"switch","red","black","black","nonincentive",3200,1,3128,2,2,573951,578451,581579,39995,38,533.956,538.456,541.584,28.439,274.456,520.456,246.073,492.056,738.073
"rea","cue",2,"197449","rea_cue_run2_197449","2B","e","c","i","l",1,2,NA,"stay","red","black","black","nonincentive",3200,0,0,NA,2,585934,590451,0,39995,39,545.939,550.456,-39.995,28.439,274.456,520.456,246.073,492.056,738.073
"rea","cue",2,"197449","rea_cue_run2_197449","H5","o","c","c","n",2,2,"yes","switch","red","green","green","incentive",4400,1,675,2,2,597951,602434,603109,39995,40,557.956,562.439,563.114,28.439,274.456,520.456,246.073,492.056,738.073
"rea","cue",2,"197449","rea_cue_run2_197449","H5","o","c","c","l",2,2,NA,"switch","red","black","black","nonincentive",4400,1,544,2,2,611134,615651,616195,39995,41,571.139,575.656,576.2,28.439,274.456,520.456,246.073,492.056,738.073
"rea","cue",2,"197449","rea_cue_run2_197449","6I","e","v","c","n",1,1,NA,"switch","red","black","black","nonincentive",2000,1,1061,1,1,624351,628834,629895,39995,42,584.356,588.839,589.9,28.439,274.456,520.456,246.073,492.056,738.073
"rea","cue",2,"197449","rea_cue_run2_197449","3E","o","v","i","n",2,1,"error","stay","red","green","green","incentive",2000,0,1511,1,2,635151,639634,641145,39995,43,595.156,599.639,601.15,28.439,274.456,520.456,246.073,492.056,738.073
"rea","cue",2,"197449","rea_cue_run2_197449","4D","e","c","i","n",1,2,"error","stay","red","green","green","incentive",3200,0,1175,2,1,645934,650451,651626,39995,44,605.939,610.456,611.631,28.439,274.456,520.456,246.073,492.056,738.073
"rea","cue",2,"197449","rea_cue_run2_197449","4D","e","c","i","l",1,2,"error","switch","red","green","green","incentive",4400,0,1490,1,2,657951,662451,663941,39995,45,617.956,622.456,623.946,28.439,274.456,520.456,246.073,492.056,738.073
"rea","cue",2,"197449","rea_cue_run2_197449","2A","e","v","c","n",1,1,NA,"switch","red","black","black","nonincentive",4400,1,2966,1,1,671151,675651,678617,39995,46,631.156,635.656,638.622,28.439,274.456,520.456,246.073,492.056,738.073
"rea","cue",2,"197449","rea_cue_run2_197449","5H","o","c","c","n",2,2,NA,"stay","red","black","black","nonincentive",4400,1,646,2,2,684351,688851,689497,39995,47,644.356,648.856,649.502,28.439,274.456,520.456,246.073,492.056,738.073
"rea","cue",2,"197449","rea_cue_run2_197449","A1","o","v","i","l",2,1,NA,"switch","red","black","black","nonincentive",2000,1,1128,1,1,697551,702051,703179,39995,48,657.556,662.056,663.184,28.439,274.456,520.456,246.073,492.056,738.073
"rea","cue",2,"197449","rea_cue_run2_197449","A2","e","v","c","l",1,1,NA,"stay","red","black","black","nonincentive",3200,0,0,NA,1,708334,712851,0,39995,49,668.339,672.856,-39.995,28.439,274.456,520.456,246.073,492.056,738.073
"rea","cue",2,"197449","rea_cue_run2_197449","B1","o","c","c","l",2,2,NA,"stay","red","black","black","nonincentive",2000,1,951,2,2,720351,724851,725802,39995,50,680.356,684.856,685.807,28.439,274.456,520.456,246.073,492.056,738.073
"rea","cue",2,"197449","rea_cue_run2_197449","D4","e","c","i","l",1,2,"yes","stay","red","green","green","incentive",4400,1,1013,2,2,731151,735634,736647,39995,51,691.156,695.639,696.652,28.439,274.456,520.456,246.073,492.056,738.073
"rea","cue",2,"197449","rea_cue_run2_197449","1B","o","c","c","n",2,2,NA,"switch","red","black","black","nonincentive",2000,1,793,2,2,744334,748851,749644,39995,52,704.339,708.856,709.649,28.439,274.456,520.456,246.073,492.056,738.073
"rea","cue",2,"197449","rea_cue_run2_197449","E3","o","v","i","l",2,1,"no.resp","switch","red","green","green","incentive",3200,0,0,NA,1,755134,759651,0,39995,53,715.139,719.656,-39.995,28.439,274.456,520.456,246.073,492.056,738.073
"rea","cue",2,"197449","rea_cue_run2_197449","B1","o","c","c","n",2,2,NA,"switch","red","black","black","nonincentive",3200,1,1656,2,2,767151,771634,773290,39995,54,727.156,731.639,733.295,28.439,274.456,520.456,246.073,492.056,738.073
"bas","cue",1,"672756","bas_cue_run1_672756","5H","o","c","c","l",2,2,NA,NA,"red","black","black","nonincentive",2000,1,777,2,2,143000,147493,148270,111872,1,31.128,35.621,36.398,28.435,274.422,520.422,246.022,492.035,738.035
"bas","cue",1,"672756","bas_cue_run1_672756","H5","o","c","c","l",2,2,NA,"stay","red","black","black","nonincentive",4400,1,561,2,2,153787,158307,158868,111872,2,41.915,46.435,46.996,28.435,274.422,520.422,246.022,492.035,738.035
"bas","cue",1,"672756","bas_cue_run1_672756","E3","o","v","i","l",2,1,NA,"stay","red","black","green","nonincentive",2000,1,444,1,1,167000,171507,171951,111872,3,55.128,59.635,60.079,28.435,274.422,520.422,246.022,492.035,738.035
"bas","cue",1,"672756","bas_cue_run1_672756","1B","o","c","c","l",2,2,NA,"stay","red","black","black","nonincentive",3200,1,764,2,2,177800,182307,183071,111872,4,65.928,70.435,71.199,28.435,274.422,520.422,246.022,492.035,738.035
"bas","cue",1,"672756","bas_cue_run1_672756","D4","e","c","i","l",1,2,NA,"stay","red","black","green","nonincentive",4400,1,547,2,2,189787,194293,194840,111872,5,77.915,82.421,82.968,28.435,274.422,520.422,246.022,492.035,738.035
"bas","cue",1,"672756","bas_cue_run1_672756","I6","e","v","c","n",1,1,NA,"switch","red","black","black","nonincentive",3200,1,681,1,1,203000,207507,208188,111872,6,91.128,95.635,96.316,28.435,274.422,520.422,246.022,492.035,738.035
"bas","cue",1,"672756","bas_cue_run1_672756","B1","o","c","c","l",2,2,NA,"switch","red","black","black","nonincentive",4400,1,521,2,2,215000,219507,220028,111872,7,103.128,107.635,108.156,28.435,274.422,520.422,246.022,492.035,738.035
"bas","cue",1,"672756","bas_cue_run1_672756","6I","e","v","c","n",1,1,NA,"switch","red","black","green","nonincentive",3200,1,608,1,1,228187,232693,233301,111872,8,116.315,120.821,121.429,28.435,274.422,520.422,246.022,492.035,738.035
"bas","cue",1,"672756","bas_cue_run1_672756","4D","e","c","i","n",1,2,NA,"stay","red","black","green","nonincentive",2000,1,769,1,1,240200,244707,245476,111872,9,128.328,132.835,133.604,28.435,274.422,520.422,246.022,492.035,738.035
"bas","cue",1,"672756","bas_cue_run1_672756","D4","e","c","i","n",1,2,NA,"stay","red","black","green","nonincentive",2000,1,1195,1,1,251000,255507,256702,111872,10,139.128,143.635,144.83,28.435,274.422,520.422,246.022,492.035,738.035
"bas","cue",1,"672756","bas_cue_run1_672756","I6","e","v","c","l",1,1,NA,"switch","red","black","green","nonincentive",3200,1,662,1,1,261800,266293,266955,111872,11,149.928,154.421,155.083,28.435,274.422,520.422,246.022,492.035,738.035
"bas","cue",1,"672756","bas_cue_run1_672756","2A","e","v","c","n",1,1,NA,"switch","red","black","black","nonincentive",3200,1,1170,1,1,273787,278293,279463,111872,12,161.915,166.421,167.591,28.435,274.422,520.422,246.022,492.035,738.035
"bas","cue",1,"672756","bas_cue_run1_672756","1A","o","v","i","l",2,1,NA,"switch","red","black","black","nonincentive",4400,1,928,1,1,285800,290307,291235,111872,13,173.928,178.435,179.363,28.435,274.422,520.422,246.022,492.035,738.035
"bas","cue",1,"672756","bas_cue_run1_672756","A2","e","v","c","n",1,1,NA,"switch","red","black","black","nonincentive",3200,1,1331,1,1,299000,303507,304838,111872,14,187.128,191.635,192.966,28.435,274.422,520.422,246.022,492.035,738.035
"bas","cue",1,"672756","bas_cue_run1_672756","1B","o","c","c","n",2,2,NA,"stay","red","black","black","nonincentive",4400,1,549,2,2,310987,315493,316042,111872,15,199.115,203.621,204.17,28.435,274.422,520.422,246.022,492.035,738.035
"bas","cue",1,"672756","bas_cue_run1_672756","A2","e","v","c","l",1,1,NA,"switch","red","black","black","nonincentive",2000,1,1010,1,1,324200,328707,329717,111872,16,212.328,216.835,217.845,28.435,274.422,520.422,246.022,492.035,738.035
"bas","cue",1,"672756","bas_cue_run1_672756","B1","o","c","c","n",2,2,NA,"switch","red","black","black","nonincentive",2000,1,645,2,2,335000,339507,340152,111872,17,223.128,227.635,228.28,28.435,274.422,520.422,246.022,492.035,738.035
"bas","cue",1,"672756","bas_cue_run1_672756","B2","e","c","i","n",1,2,NA,"stay","red","black","black","nonincentive",4400,1,983,1,1,345787,350293,351276,111872,18,233.915,238.421,239.404,28.435,274.422,520.422,246.022,492.035,738.035
"bas","cue",1,"672756","bas_cue_run1_672756","A2","e","v","c","n",1,1,NA,NA,"red","black","black","nonincentive",2000,1,883,1,1,388987,393494,394377,111872,19,277.115,281.622,282.505,28.435,274.422,520.422,246.022,492.035,738.035
"bas","cue",1,"672756","bas_cue_run1_672756","1B","o","c","c","l",2,2,NA,"switch","red","black","black","nonincentive",2000,1,693,2,2,399787,404307,405000,111872,20,287.915,292.435,293.128,28.435,274.422,520.422,246.022,492.035,738.035
"bas","cue",1,"672756","bas_cue_run1_672756","A1","o","v","i","n",2,1,NA,"switch","red","black","black","nonincentive",4400,1,1577,2,2,410600,415107,416684,111872,21,298.728,303.235,304.812,28.435,274.422,520.422,246.022,492.035,738.035
"bas","cue",1,"672756","bas_cue_run1_672756","E3","o","v","i","n",2,1,NA,"stay","red","black","green","nonincentive",2000,1,653,2,2,423800,428294,428947,111872,22,311.928,316.422,317.075,28.435,274.422,520.422,246.022,492.035,738.035
"bas","cue",1,"672756","bas_cue_run1_672756","2A","e","v","c","l",1,1,NA,"switch","red","black","black","nonincentive",3200,1,530,1,1,434587,439094,439624,111872,23,322.715,327.222,327.752,28.435,274.422,520.422,246.022,492.035,738.035
"bas","cue",1,"672756","bas_cue_run1_672756","I6","e","v","c","l",1,1,NA,"stay","red","black","black","nonincentive",3200,0,1117,2,1,446600,451107,452224,111872,24,334.728,339.235,340.352,28.435,274.422,520.422,246.022,492.035,738.035
"bas","cue",1,"672756","bas_cue_run1_672756","2B","e","c","i","l",1,2,NA,"stay","red","black","black","nonincentive",4400,1,800,2,2,458600,463107,463907,111872,25,346.728,351.235,352.035,28.435,274.422,520.422,246.022,492.035,738.035
"bas","cue",1,"672756","bas_cue_run1_672756","1B","o","c","c","n",2,2,NA,"switch","red","black","black","nonincentive",3200,1,1286,2,2,471787,476294,477580,111872,26,359.915,364.422,365.708,28.435,274.422,520.422,246.022,492.035,738.035
"bas","cue",1,"672756","bas_cue_run1_672756","5H","o","c","c","n",2,2,NA,"stay","red","black","green","nonincentive",4400,1,963,2,2,483800,488307,489270,111872,27,371.928,376.435,377.398,28.435,274.422,520.422,246.022,492.035,738.035
"bas","cue",1,"672756","bas_cue_run1_672756","E3","o","v","i","n",2,1,NA,"stay","red","black","green","nonincentive",2000,1,811,2,2,497000,501507,502318,111872,28,385.128,389.635,390.446,28.435,274.422,520.422,246.022,492.035,738.035
"bas","cue",1,"672756","bas_cue_run1_672756","6I","e","v","c","n",1,1,NA,"stay","red","black","black","nonincentive",2000,1,1202,1,1,507787,512294,513496,111872,29,395.915,400.422,401.624,28.435,274.422,520.422,246.022,492.035,738.035
"bas","cue",1,"672756","bas_cue_run1_672756","D4","e","c","i","l",1,2,NA,"switch","red","black","green","nonincentive",4400,1,1167,2,2,518587,523107,524274,111872,30,406.715,411.235,412.402,28.435,274.422,520.422,246.022,492.035,738.035
"bas","cue",1,"672756","bas_cue_run1_672756","5H","o","c","c","l",2,2,NA,"stay","red","black","black","nonincentive",3200,1,631,2,2,531800,536307,536938,111872,31,419.928,424.435,425.066,28.435,274.422,520.422,246.022,492.035,738.035
"bas","cue",1,"672756","bas_cue_run1_672756","2A","e","v","c","n",1,1,NA,"switch","red","black","black","nonincentive",3200,1,497,1,1,543800,548294,548791,111872,32,431.928,436.422,436.919,28.435,274.422,520.422,246.022,492.035,738.035
"bas","cue",1,"672756","bas_cue_run1_672756","B1","o","c","c","l",2,2,NA,"switch","red","black","black","nonincentive",4400,1,606,2,2,555787,560294,560900,111872,33,443.915,448.422,449.028,28.435,274.422,520.422,246.022,492.035,738.035
"bas","cue",1,"672756","bas_cue_run1_672756","2A","e","v","c","l",1,1,NA,"stay","red","black","black","nonincentive",2000,1,730,1,1,569000,573507,574237,111872,34,457.128,461.635,462.365,28.435,274.422,520.422,246.022,492.035,738.035
"bas","cue",1,"672756","bas_cue_run1_672756","3E","o","v","i","n",2,1,NA,"switch","red","black","green","nonincentive",3200,1,1539,2,2,579800,584307,585846,111872,35,467.928,472.435,473.974,28.435,274.422,520.422,246.022,492.035,738.035
"bas","cue",1,"672756","bas_cue_run1_672756","3E","o","v","i","l",2,1,NA,"switch","red","black","green","nonincentive",4400,1,742,1,1,591787,596294,597036,111872,36,479.915,484.422,485.164,28.435,274.422,520.422,246.022,492.035,738.035
"bas","cue",1,"672756","bas_cue_run1_672756","1A","o","v","i","n",2,1,NA,NA,"red","black","black","nonincentive",4400,1,886,2,2,634987,639494,640380,111872,37,523.115,527.622,528.508,28.435,274.422,520.422,246.022,492.035,738.035
"bas","cue",1,"672756","bas_cue_run1_672756","3E","o","v","i","n",2,1,NA,"stay","red","black","green","nonincentive",4400,1,1024,2,2,648201,652707,653731,111872,38,536.329,540.835,541.859,28.435,274.422,520.422,246.022,492.035,738.035
"bas","cue",1,"672756","bas_cue_run1_672756","B1","o","c","c","l",2,2,NA,"switch","red","black","black","nonincentive",3200,1,618,2,2,661401,665907,666525,111872,39,549.529,554.035,554.653,28.435,274.422,520.422,246.022,492.035,738.035
"bas","cue",1,"672756","bas_cue_run1_672756","H5","o","c","c","l",2,2,NA,"stay","red","black","green","nonincentive",3200,1,723,2,2,673387,677894,678617,111872,40,561.515,566.022,566.745,28.435,274.422,520.422,246.022,492.035,738.035
"bas","cue",1,"672756","bas_cue_run1_672756","A2","e","v","c","l",1,1,NA,"stay","red","black","black","nonincentive",2000,1,402,1,1,685401,689907,690309,111872,41,573.529,578.035,578.437,28.435,274.422,520.422,246.022,492.035,738.035
"bas","cue",1,"672756","bas_cue_run1_672756","2A","e","v","c","n",1,1,NA,"switch","red","black","black","nonincentive",2000,1,1208,1,1,696201,700707,701915,111872,42,584.329,588.835,590.043,28.435,274.422,520.422,246.022,492.035,738.035
"bas","cue",1,"672756","bas_cue_run1_672756","6I","e","v","c","n",1,1,NA,"stay","red","black","black","nonincentive",3200,1,860,1,1,707001,711494,712354,111872,43,595.129,599.622,600.482,28.435,274.422,520.422,246.022,492.035,738.035
"bas","cue",1,"672756","bas_cue_run1_672756","6I","e","v","c","l",1,1,NA,"switch","red","black","black","nonincentive",2000,1,703,1,1,718987,723481,724184,111872,44,607.115,611.609,612.312,28.435,274.422,520.422,246.022,492.035,738.035
"bas","cue",1,"672756","bas_cue_run1_672756","H5","o","c","c","n",2,2,NA,"switch","red","black","black","nonincentive",4400,1,586,2,2,729801,734294,734880,111872,45,617.929,622.422,623.008,28.435,274.422,520.422,246.022,492.035,738.035
"bas","cue",1,"672756","bas_cue_run1_672756","1B","o","c","c","n",2,2,NA,"stay","red","black","black","nonincentive",3200,1,810,2,2,743001,747494,748304,111872,46,631.129,635.622,636.432,28.435,274.422,520.422,246.022,492.035,738.035
"bas","cue",1,"672756","bas_cue_run1_672756","1B","o","c","c","l",2,2,NA,"switch","red","black","black","nonincentive",4400,1,1447,2,2,754987,759481,760928,111872,47,643.115,647.609,649.056,28.435,274.422,520.422,246.022,492.035,738.035
"bas","cue",1,"672756","bas_cue_run1_672756","4D","e","c","i","l",1,2,NA,"stay","red","black","green","nonincentive",2000,1,993,2,2,768201,772694,773687,111872,48,656.329,660.822,661.815,28.435,274.422,520.422,246.022,492.035,738.035
"bas","cue",1,"672756","bas_cue_run1_672756","B1","o","c","c","n",2,2,NA,"switch","red","black","black","nonincentive",4400,1,983,2,2,779001,783494,784477,111872,49,667.129,671.622,672.605,28.435,274.422,520.422,246.022,492.035,738.035
"bas","cue",1,"672756","bas_cue_run1_672756","4D","e","c","i","n",1,2,NA,"stay","red","black","green","nonincentive",3200,1,1226,1,1,792187,796681,797907,111872,50,680.315,684.809,686.035,28.435,274.422,520.422,246.022,492.035,738.035
"bas","cue",1,"672756","bas_cue_run1_672756","2A","e","v","c","l",1,1,NA,"switch","red","black","black","nonincentive",3200,1,1645,1,1,804187,808694,810339,111872,51,692.315,696.822,698.467,28.435,274.422,520.422,246.022,492.035,738.035
"bas","cue",1,"672756","bas_cue_run1_672756","A2","e","v","c","n",1,1,NA,"switch","red","black","black","nonincentive",2000,1,742,1,1,816201,820694,821436,111872,52,704.329,708.822,709.564,28.435,274.422,520.422,246.022,492.035,738.035
"bas","cue",1,"672756","bas_cue_run1_672756","E3","o","v","i","l",2,1,NA,"switch","red","black","green","nonincentive",2000,1,699,1,1,827001,831494,832193,111872,53,715.129,719.622,720.321,28.435,274.422,520.422,246.022,492.035,738.035
"bas","cue",1,"672756","bas_cue_run1_672756","3E","o","v","i","l",2,1,NA,"stay","red","black","green","nonincentive",4400,1,961,1,1,837787,842281,843242,111872,54,725.915,730.409,731.37,28.435,274.422,520.422,246.022,492.035,738.035
"bas","cue",2,"672756","bas_cue_run2_672756","B1","o","c","c","n",2,2,NA,NA,"red","black","black","nonincentive",2000,1,919,2,2,88387,92881,93800,57267,1,31.12,35.614,36.533,28.414,274.414,520.414,246.027,492.028,738.014
"bas","cue",2,"672756","bas_cue_run2_672756","B2","e","c","i","l",1,2,NA,"switch","red","black","black","nonincentive",4400,1,813,2,2,99187,103681,104494,57267,2,41.92,46.414,47.227,28.414,274.414,520.414,246.027,492.028,738.014
"bas","cue",2,"672756","bas_cue_run2_672756","H5","o","c","c","l",2,2,NA,"stay","red","black","black","nonincentive",4400,1,1059,2,2,112374,116867,117926,57267,3,55.107,59.6,60.659,28.414,274.414,520.414,246.027,492.028,738.014
"bas","cue",2,"672756","bas_cue_run2_672756","A2","e","v","c","n",1,1,NA,"switch","red","black","black","nonincentive",2000,1,1268,1,1,125587,130081,131349,57267,4,68.32,72.814,74.082,28.414,274.414,520.414,246.027,492.028,738.014
"bas","cue",2,"672756","bas_cue_run2_672756","A2","e","v","c","l",1,1,NA,"switch","red","black","black","nonincentive",4400,1,660,1,1,136387,140881,141541,57267,5,79.12,83.614,84.274,28.414,274.414,520.414,246.027,492.028,738.014
"bas","cue",2,"672756","bas_cue_run2_672756","2A","e","v","c","n",1,1,NA,"switch","red","black","black","nonincentive",3200,1,591,1,1,149574,154067,154658,57267,6,92.307,96.8,97.391,28.414,274.414,520.414,246.027,492.028,738.014
"bas","cue",2,"672756","bas_cue_run2_672756","1B","o","c","c","l",2,2,NA,"switch","red","black","black","nonincentive",3200,1,649,2,2,161587,166081,166730,57267,7,104.32,108.814,109.463,28.414,274.414,520.414,246.027,492.028,738.014
"bas","cue",2,"672756","bas_cue_run2_672756","E3","o","v","i","n",2,1,NA,"switch","red","black","green","nonincentive",3200,1,999,2,2,173587,178081,179080,57267,8,116.32,120.814,121.813,28.414,274.414,520.414,246.027,492.028,738.014
"bas","cue",2,"672756","bas_cue_run2_672756","6I","e","v","c","n",1,1,NA,"stay","red","black","black","nonincentive",2000,1,896,1,1,185587,190067,190963,57267,9,128.32,132.8,133.696,28.414,274.414,520.414,246.027,492.028,738.014
"bas","cue",2,"672756","bas_cue_run2_672756","B1","o","c","c","l",2,2,NA,"switch","red","black","black","nonincentive",4400,1,599,2,2,196374,200868,201467,57267,10,139.107,143.601,144.2,28.414,274.414,520.414,246.027,492.028,738.014
"bas","cue",2,"672756","bas_cue_run2_672756","5H","o","c","c","n",2,2,NA,"switch","red","black","black","nonincentive",2000,1,583,2,2,209588,214081,214664,57267,11,152.321,156.814,157.397,28.414,274.414,520.414,246.027,492.028,738.014
"bas","cue",2,"672756","bas_cue_run2_672756","2A","e","v","c","l",1,1,NA,"switch","red","black","black","nonincentive",3200,1,616,1,1,220388,224881,225497,57267,12,163.121,167.614,168.23,28.414,274.414,520.414,246.027,492.028,738.014
"bas","cue",2,"672756","bas_cue_run2_672756","4D","e","c","i","l",1,2,NA,"stay","red","black","green","nonincentive",2000,1,566,2,2,232374,236868,237434,57267,13,175.107,179.601,180.167,28.414,274.414,520.414,246.027,492.028,738.014
"bas","cue",2,"672756","bas_cue_run2_672756","D4","e","c","i","n",1,2,NA,"switch","red","black","green","nonincentive",4400,0,639,2,1,243188,247681,248320,57267,14,185.921,190.414,191.053,28.414,274.414,520.414,246.027,492.028,738.014
"bas","cue",2,"672756","bas_cue_run2_672756","6I","e","v","c","l",1,1,NA,"switch","red","black","green","nonincentive",4400,1,1011,1,1,256388,260881,261892,57267,15,199.121,203.614,204.625,28.414,274.414,520.414,246.027,492.028,738.014
"bas","cue",2,"672756","bas_cue_run2_672756","3E","o","v","i","n",2,1,NA,"switch","red","black","green","nonincentive",3200,1,751,2,2,269574,274068,274819,57267,16,212.307,216.801,217.552,28.414,274.414,520.414,246.027,492.028,738.014
"bas","cue",2,"672756","bas_cue_run2_672756","E3","o","v","i","l",2,1,NA,"switch","red","black","green","nonincentive",3200,1,783,1,1,281574,286081,286864,57267,17,224.307,228.814,229.597,28.414,274.414,520.414,246.027,492.028,738.014
"bas","cue",2,"672756","bas_cue_run2_672756","1B","o","c","c","n",2,2,NA,"switch","red","black","black","nonincentive",2000,1,1126,2,2,293588,298081,299207,57267,18,236.321,240.814,241.94,28.414,274.414,520.414,246.027,492.028,738.014
"bas","cue",2,"672756","bas_cue_run2_672756","4D","e","c","i","n",1,2,NA,NA,"red","black","green","nonincentive",2000,1,942,1,1,334388,338881,339823,57267,19,277.121,281.614,282.556,28.414,274.414,520.414,246.027,492.028,738.014
"bas","cue",2,"672756","bas_cue_run2_672756","1B","o","c","c","l",2,2,NA,"switch","red","black","black","nonincentive",4400,1,1414,2,2,345188,349681,351095,57267,20,287.921,292.414,293.828,28.414,274.414,520.414,246.027,492.028,738.014
"bas","cue",2,"672756","bas_cue_run2_672756","I6","e","v","c","n",1,1,NA,"switch","red","black","green","nonincentive",2000,1,1005,1,1,358374,362868,363873,57267,21,301.107,305.601,306.606,28.414,274.414,520.414,246.027,492.028,738.014
"bas","cue",2,"672756","bas_cue_run2_672756","B1","o","c","c","l",2,2,NA,"switch","red","black","black","nonincentive",3200,1,1054,2,2,369188,373681,374735,57267,22,311.921,316.414,317.468,28.414,274.414,520.414,246.027,492.028,738.014
"bas","cue",2,"672756","bas_cue_run2_672756","I6","e","v","c","n",1,1,NA,"switch","red","black","black","nonincentive",2000,1,1068,1,1,381188,385681,386749,57267,23,323.921,328.414,329.482,28.414,274.414,520.414,246.027,492.028,738.014
"bas","cue",2,"672756","bas_cue_run2_672756","2A","e","v","c","n",1,1,NA,"stay","red","black","black","nonincentive",4400,1,545,1,1,391974,396468,397013,57267,24,334.707,339.201,339.746,28.414,274.414,520.414,246.027,492.028,738.014
"bas","cue",2,"672756","bas_cue_run2_672756","I6","e","v","c","l",1,1,NA,"switch","red","black","black","nonincentive",4400,1,852,1,1,405188,409681,410533,57267,25,347.921,352.414,353.266,28.414,274.414,520.414,246.027,492.028,738.014
"bas","cue",2,"672756","bas_cue_run2_672756","D4","e","c","i","n",1,2,NA,"switch","red","black","green","nonincentive",3200,1,901,1,1,418388,422881,423782,57267,26,361.121,365.614,366.515,28.414,274.414,520.414,246.027,492.028,738.014
"bas","cue",2,"672756","bas_cue_run2_672756","3E","o","v","i","l",2,1,NA,"switch","red","black","green","nonincentive",3200,1,873,1,1,430388,434868,435741,57267,27,373.121,377.601,378.474,28.414,274.414,520.414,246.027,492.028,738.014
"bas","cue",2,"672756","bas_cue_run2_672756","H5","o","c","c","l",2,2,NA,"stay","red","black","black","nonincentive",4400,1,864,2,2,442375,446881,447745,57267,28,385.108,389.614,390.478,28.414,274.414,520.414,246.027,492.028,738.014
"bas","cue",2,"672756","bas_cue_run2_672756","A2","e","v","c","n",1,1,NA,"switch","red","black","black","nonincentive",4400,1,1269,1,1,455588,460081,461350,57267,29,398.321,402.814,404.083,28.414,274.414,520.414,246.027,492.028,738.014
"bas","cue",2,"672756","bas_cue_run2_672756","D4","e","c","i","l",1,2,NA,"switch","red","black","green","nonincentive",3200,1,770,2,2,468788,473268,474038,57267,30,411.521,416.001,416.771,28.414,274.414,520.414,246.027,492.028,738.014
"bas","cue",2,"672756","bas_cue_run2_672756","B1","o","c","c","n",2,2,NA,"switch","red","black","black","nonincentive",3200,1,1257,2,2,480774,485281,486538,57267,31,423.507,428.014,429.271,28.414,274.414,520.414,246.027,492.028,738.014
"bas","cue",2,"672756","bas_cue_run2_672756","1A","o","v","i","n",2,1,NA,"stay","red","black","black","nonincentive",3200,1,1838,2,2,492788,497281,499119,57267,32,435.521,440.014,441.852,28.414,274.414,520.414,246.027,492.028,738.014
"bas","cue",2,"672756","bas_cue_run2_672756","A2","e","v","c","l",1,1,NA,"switch","red","black","black","nonincentive",2000,1,731,1,1,504788,509281,510012,57267,33,447.521,452.014,452.745,28.414,274.414,520.414,246.027,492.028,738.014
"bas","cue",2,"672756","bas_cue_run2_672756","2B","e","c","i","n",1,2,NA,"switch","red","black","black","nonincentive",2000,1,1788,1,1,515575,520068,521856,57267,34,458.308,462.801,464.589,28.414,274.414,520.414,246.027,492.028,738.014
"bas","cue",2,"672756","bas_cue_run2_672756","2A","e","v","c","l",1,1,NA,"switch","red","black","black","nonincentive",2000,1,477,1,1,526388,530881,531358,57267,35,469.121,473.614,474.091,28.414,274.414,520.414,246.027,492.028,738.014
"bas","cue",2,"672756","bas_cue_run2_672756","5H","o","c","c","l",2,2,NA,"stay","red","black","green","nonincentive",4400,1,2460,2,2,537188,541681,544141,57267,36,479.921,484.414,486.874,28.414,274.414,520.414,246.027,492.028,738.014
"bas","cue",2,"672756","bas_cue_run2_672756","B1","o","c","c","n",2,2,NA,NA,"red","black","black","nonincentive",2000,1,867,2,2,580388,584881,585748,57267,37,523.121,527.614,528.481,28.414,274.414,520.414,246.027,492.028,738.014
"bas","cue",2,"672756","bas_cue_run2_672756","4D","e","c","i","n",1,2,NA,"stay","red","black","green","nonincentive",4400,1,952,1,1,591188,595668,596620,57267,38,533.921,538.401,539.353,28.414,274.414,520.414,246.027,492.028,738.014
"bas","cue",2,"672756","bas_cue_run2_672756","1B","o","c","c","l",2,2,NA,"switch","red","black","black","nonincentive",2000,1,1573,2,2,604375,608881,610454,57267,39,547.108,551.614,553.187,28.414,274.414,520.414,246.027,492.028,738.014
"bas","cue",2,"672756","bas_cue_run2_672756","D4","e","c","i","l",1,2,NA,"stay","red","black","green","nonincentive",3200,1,1053,2,2,615188,619681,620734,57267,40,557.921,562.414,563.467,28.414,274.414,520.414,246.027,492.028,738.014
"bas","cue",2,"672756","bas_cue_run2_672756","A2","e","v","c","n",1,1,NA,"switch","red","black","black","nonincentive",2000,1,1584,1,1,627188,631681,633265,57267,41,569.921,574.414,575.998,28.414,274.414,520.414,246.027,492.028,738.014
"bas","cue",2,"672756","bas_cue_run2_672756","A1","o","v","i","l",2,1,NA,"switch","red","black","black","nonincentive",3200,1,663,1,1,637975,642468,643131,57267,42,580.708,585.201,585.864,28.414,274.414,520.414,246.027,492.028,738.014
"bas","cue",2,"672756","bas_cue_run2_672756","E3","o","v","i","l",2,1,NA,"stay","red","black","green","nonincentive",3200,1,1067,1,1,649988,654481,655548,57267,43,592.721,597.214,598.281,28.414,274.414,520.414,246.027,492.028,738.014
"bas","cue",2,"672756","bas_cue_run2_672756","H5","o","c","c","n",2,2,NA,"switch","red","black","green","nonincentive",4400,1,601,2,2,661988,666481,667082,57267,44,604.721,609.214,609.815,28.414,274.414,520.414,246.027,492.028,738.014
"bas","cue",2,"672756","bas_cue_run2_672756","2A","e","v","c","n",1,1,NA,"stay","red","black","black","nonincentive",4400,1,753,1,1,675175,679668,680421,57267,45,617.908,622.401,623.154,28.414,274.414,520.414,246.027,492.028,738.014
"bas","cue",2,"672756","bas_cue_run2_672756","6I","e","v","c","n",1,1,NA,"stay","red","black","black","nonincentive",3200,1,1109,1,1,688388,692881,693990,57267,46,631.121,635.614,636.723,28.414,274.414,520.414,246.027,492.028,738.014
"bas","cue",2,"672756","bas_cue_run2_672756","2B","e","c","i","l",1,2,NA,"switch","red","black","black","nonincentive",4400,1,1127,2,2,700388,704881,706008,57267,47,643.121,647.614,648.741,28.414,274.414,520.414,246.027,492.028,738.014
"bas","cue",2,"672756","bas_cue_run2_672756","A2","e","v","c","l",1,1,NA,"stay","red","black","black","nonincentive",2000,1,955,1,1,713588,718068,719023,57267,48,656.321,660.801,661.756,28.414,274.414,520.414,246.027,492.028,738.014
