"session","task","run","subj","name","trial.type","load","numtrials","probe","iti","acc","rt","resp","cresp","time.cue.onset.abs","time.target.onset.abs","time.rt.abs","time.scan.start","trial.num","time.cue.onset","time.target.onset","time.rt","time.block1.on","time.block2.on","time.block3.on","time.block1.off","time.block2.off","time.block3.off"
"bas","ste",1,"197449","bas_ste_run1_197449","NP",5,3,"syrup",1600,1,1562,2,2,128505,137305,138867,97669,1,30.836,39.636,41.198,28.436,256.423,484.436,228.049,456.036,684.05
"bas","ste",1,"197449","bas_ste_run1_197449","NN",8,2,"scale",4000,1,937,1,1,140505,149292,150229,97669,2,42.836,51.623,52.56,28.436,256.423,484.436,228.049,456.036,684.05
"bas","ste",1,"197449","bas_ste_run1_197449","NN",8,2,"doll",4000,1,952,1,1,154892,163705,164657,97669,3,57.223,66.036,66.988,28.436,256.423,484.436,228.049,456.036,684.05
"bas","ste",1,"197449","bas_ste_run1_197449","NP",5,3,"threat",1600,1,1154,2,2,169305,178105,179259,97669,4,71.636,80.436,81.59,28.436,256.423,484.436,228.049,456.036,684.05
"bas","ste",1,"197449","bas_ste_run1_197449","NN",6,1,"parrot",1600,1,1176,1,1,181305,190092,191268,97669,5,83.636,92.423,93.599,28.436,256.423,484.436,228.049,456.036,684.05
"bas","ste",1,"197449","bas_ste_run1_197449","NP",8,2,"chance",2800,1,967,2,2,193292,202105,203072,97669,6,95.623,104.436,105.403,28.436,256.423,484.436,228.049,456.036,684.05
"bas","ste",1,"197449","bas_ste_run1_197449","NN",5,2,"blur",1600,1,844,1,1,206505,215305,216149,97669,7,108.836,117.636,118.48,28.436,256.423,484.436,228.049,456.036,684.05
"bas","ste",1,"197449","bas_ste_run1_197449","NP",7,2,"rash",2800,1,1475,2,2,218505,227292,228767,97669,8,120.836,129.623,131.098,28.436,256.423,484.436,228.049,456.036,684.05
"bas","ste",1,"197449","bas_ste_run1_197449","NN",5,2,"tube",4000,1,1041,1,1,231692,240505,241546,97669,9,134.023,142.836,143.877,28.436,256.423,484.436,228.049,456.036,684.05
"bas","ste",1,"197449","bas_ste_run1_197449","NP",5,3,"share",2800,1,1223,2,2,246105,254905,256128,97669,10,148.436,157.236,158.459,28.436,256.423,484.436,228.049,456.036,684.05
"bas","ste",1,"197449","bas_ste_run1_197449","NP",7,2,"wealth",2800,0,955,1,2,259305,268092,269047,97669,11,161.636,170.423,171.378,28.436,256.423,484.436,228.049,456.036,684.05
"bas","ste",1,"197449","bas_ste_run1_197449","NP",8,2,"bush",1600,1,1267,2,2,272492,281305,282572,97669,12,174.823,183.636,184.903,28.436,256.423,484.436,228.049,456.036,684.05
"bas","ste",1,"197449","bas_ste_run1_197449","NN",7,1,"straw",2800,1,856,1,1,284505,293305,294161,97669,13,186.836,195.636,196.492,28.436,256.423,484.436,228.049,456.036,684.05
"bas","ste",1,"197449","bas_ste_run1_197449","NP",6,1,"frost",4000,1,945,2,2,297705,306492,307437,97669,14,200.036,208.823,209.768,28.436,256.423,484.436,228.049,456.036,684.05
"bas","ste",1,"197449","bas_ste_run1_197449","RN",5,1,"quart",4000,1,1787,1,1,312092,320905,322692,97669,15,214.423,223.236,225.023,28.436,256.423,484.436,228.049,456.036,684.05
"bas","ste",1,"197449","bas_ste_run1_197449","NN",6,1,"taxi",4000,1,973,1,1,356492,365305,366278,97669,16,258.823,267.636,268.609,28.436,256.423,484.436,228.049,456.036,684.05
"bas","ste",1,"197449","bas_ste_run1_197449","NN",8,2,"liar",1600,1,752,1,1,370905,379705,380457,97669,17,273.236,282.036,282.788,28.436,256.423,484.436,228.049,456.036,684.05
"bas","ste",1,"197449","bas_ste_run1_197449","NP",7,2,"need",4000,0,1208,1,2,382905,391692,392900,97669,18,285.236,294.023,295.231,28.436,256.423,484.436,228.049,456.036,684.05
"bas","ste",1,"197449","bas_ste_run1_197449","NP",7,2,"bean",2800,1,1294,2,2,397292,406105,407399,97669,19,299.623,308.436,309.73,28.436,256.423,484.436,228.049,456.036,684.05
"bas","ste",1,"197449","bas_ste_run1_197449","NP",8,3,"bees",1600,0,1016,1,2,410505,419305,420321,97669,20,312.836,321.636,322.652,28.436,256.423,484.436,228.049,456.036,684.05
"bas","ste",1,"197449","bas_ste_run1_197449","NP",5,3,"visit",2800,1,1891,2,2,422505,431292,433183,97669,21,324.836,333.623,335.514,28.436,256.423,484.436,228.049,456.036,684.05
"bas","ste",1,"197449","bas_ste_run1_197449","NN",7,1,"logic",4000,0,0,NA,1,435692,444505,0,97669,22,338.023,346.836,-97.669,28.436,256.423,484.436,228.049,456.036,684.05
"bas","ste",1,"197449","bas_ste_run1_197449","NP",5,3,"people",2800,1,971,2,2,450105,458905,459876,97669,23,352.436,361.236,362.207,28.436,256.423,484.436,228.049,456.036,684.05
"bas","ste",1,"197449","bas_ste_run1_197449","NN",8,2,"heater",1600,1,878,1,1,463305,472092,472970,97669,24,365.636,374.423,375.301,28.436,256.423,484.436,228.049,456.036,684.05
"bas","ste",1,"197449","bas_ste_run1_197449","RN",5,1,"noise",2800,1,1116,1,1,475292,484105,485221,97669,25,377.623,386.436,387.552,28.436,256.423,484.436,228.049,456.036,684.05
"bas","ste",1,"197449","bas_ste_run1_197449","NN",5,2,"pole",1600,1,1009,1,1,488505,497305,498314,97669,26,390.836,399.636,400.645,28.436,256.423,484.436,228.049,456.036,684.05
"bas","ste",1,"197449","bas_ste_run1_197449","NP",8,3,"city",2800,0,1147,1,2,500505,509292,510439,97669,27,402.836,411.623,412.77,28.436,256.423,484.436,228.049,456.036,684.05
"bas","ste",1,"197449","bas_ste_run1_197449","NP",8,3,"carpet",1600,0,952,1,2,513692,522505,523457,97669,28,416.023,424.836,425.788,28.436,256.423,484.436,228.049,456.036,684.05
"bas","ste",1,"197449","bas_ste_run1_197449","NP",5,3,"tags",4000,0,939,1,2,525705,534505,535444,97669,29,428.036,436.836,437.775,28.436,256.423,484.436,228.049,456.036,684.05
"bas","ste",1,"197449","bas_ste_run1_197449","NN",5,2,"greed",4000,1,905,1,1,540105,548892,549797,97669,30,442.436,451.223,452.128,28.436,256.423,484.436,228.049,456.036,684.05
"bas","ste",1,"197449","bas_ste_run1_197449","NN",5,2,"pans",4000,0,0,NA,1,584505,593292,0,97669,31,486.836,495.623,-97.669,28.436,256.423,484.436,228.049,456.036,684.05
"bas","ste",1,"197449","bas_ste_run1_197449","NP",5,3,"muscle",4000,1,936,2,2,598892,607705,608641,97669,32,501.223,510.036,510.972,28.436,256.423,484.436,228.049,456.036,684.05
"bas","ste",1,"197449","bas_ste_run1_197449","NP",8,2,"bugs",2800,0,1197,1,2,613305,622105,623302,97669,33,515.636,524.436,525.633,28.436,256.423,484.436,228.049,456.036,684.05
"bas","ste",1,"197449","bas_ste_run1_197449","RN",5,1,"fusion",1600,0,1286,2,1,626505,635292,636578,97669,34,528.836,537.623,538.909,28.436,256.423,484.436,228.049,456.036,684.05
"bas","ste",1,"197449","bas_ste_run1_197449","NN",8,2,"shell",1600,1,928,1,1,638492,647305,648233,97669,35,540.823,549.636,550.564,28.436,256.423,484.436,228.049,456.036,684.05
"bas","ste",1,"197449","bas_ste_run1_197449","NP",7,1,"clue",2800,0,0,NA,2,650505,659305,0,97669,36,552.836,561.636,-97.669,28.436,256.423,484.436,228.049,456.036,684.05
"bas","ste",1,"197449","bas_ste_run1_197449","NP",8,2,"wife",1600,1,1841,2,2,663705,672492,674333,97669,37,566.036,574.823,576.664,28.436,256.423,484.436,228.049,456.036,684.05
"bas","ste",1,"197449","bas_ste_run1_197449","NN",5,2,"gift",4000,0,0,NA,1,675692,684505,0,97669,38,578.023,586.836,-97.669,28.436,256.423,484.436,228.049,456.036,684.05
"bas","ste",1,"197449","bas_ste_run1_197449","NP",6,1,"food",2800,1,1067,2,2,690105,698905,699972,97669,39,592.436,601.236,602.303,28.436,256.423,484.436,228.049,456.036,684.05
"bas","ste",1,"197449","bas_ste_run1_197449","RN",8,1,"ground",2800,1,868,1,1,703305,712092,712960,97669,40,605.636,614.423,615.291,28.436,256.423,484.436,228.049,456.036,684.05
"bas","ste",1,"197449","bas_ste_run1_197449","NP",5,3,"marker",1600,0,0,NA,2,716492,725305,0,97669,41,618.823,627.636,-97.669,28.436,256.423,484.436,228.049,456.036,684.05
"bas","ste",1,"197449","bas_ste_run1_197449","NN",8,2,"signal",4000,1,931,1,1,728505,737305,738236,97669,42,630.836,639.636,640.567,28.436,256.423,484.436,228.049,456.036,684.05
"bas","ste",1,"197449","bas_ste_run1_197449","NP",5,3,"curve",1600,0,1300,1,2,742905,751692,752992,97669,43,645.236,654.023,655.323,28.436,256.423,484.436,228.049,456.036,684.05
"bas","ste",1,"197449","bas_ste_run1_197449","NN",7,2,"pledge",2800,0,0,NA,1,754892,763705,0,97669,44,657.223,666.036,-97.669,28.436,256.423,484.436,228.049,456.036,684.05
"bas","ste",1,"197449","bas_ste_run1_197449","NN",7,2,"berry",4000,0,0,NA,1,768105,776905,0,97669,45,670.436,679.236,-97.669,28.436,256.423,484.436,228.049,456.036,684.05
"bas","ste",2,"197449","bas_ste_run2_197449","NP",5,3,"north",2800,1,1121,2,2,76016,84816,85937,45186,1,30.83,39.63,40.751,28.43,256.416,484.43,228.03,456.043,684.043
"bas","ste",2,"197449","bas_ste_run2_197449","NP",5,3,"ransom",4000,1,935,2,2,89216,98002,98937,45186,2,44.03,52.816,53.751,28.43,256.416,484.43,228.03,456.043,684.043
"bas","ste",2,"197449","bas_ste_run2_197449","NN",5,2,"chin",4000,1,808,1,1,103602,112416,113224,45186,3,58.416,67.23,68.038,28.43,256.416,484.43,228.03,456.043,684.043
"bas","ste",2,"197449","bas_ste_run2_197449","NN",6,1,"whale",4000,1,1233,1,1,118016,126816,128049,45186,4,72.83,81.63,82.863,28.43,256.416,484.43,228.03,456.043,684.043
"bas","ste",2,"197449","bas_ste_run2_197449","NN",8,2,"cotton",1600,0,0,NA,1,132416,141202,0,45186,5,87.23,96.016,-45.186,28.43,256.416,484.43,228.03,456.043,684.043
"bas","ste",2,"197449","bas_ste_run2_197449","NP",5,3,"wheel",1600,0,1349,1,2,144402,153216,154565,45186,6,99.216,108.03,109.379,28.43,256.416,484.43,228.03,456.043,684.043
"bas","ste",2,"197449","bas_ste_run2_197449","RN",5,1,"cabin",1600,1,1101,1,1,156416,165216,166317,45186,7,111.23,120.03,121.131,28.43,256.416,484.43,228.03,456.043,684.043
"bas","ste",2,"197449","bas_ste_run2_197449","NN",5,2,"hatch",4000,1,1376,1,1,168416,177216,178592,45186,8,123.23,132.03,133.406,28.43,256.416,484.43,228.03,456.043,684.043
"bas","ste",2,"197449","bas_ste_run2_197449","NN",7,1,"flame",2800,1,1148,1,1,182802,191602,192750,45186,9,137.616,146.416,147.564,28.43,256.416,484.43,228.03,456.043,684.043
"bas","ste",2,"197449","bas_ste_run2_197449","NP",6,1,"dollar",1600,0,1365,1,2,196016,204816,206181,45186,10,150.83,159.63,160.995,28.43,256.416,484.43,228.03,456.043,684.043
"bas","ste",2,"197449","bas_ste_run2_197449","NP",8,2,"exam",2800,0,0,NA,2,208016,216816,0,45186,11,162.83,171.63,-45.186,28.43,256.416,484.43,228.03,456.043,684.043
"bas","ste",2,"197449","bas_ste_run2_197449","NN",8,2,"lesson",2800,0,0,NA,1,221202,230002,0,45186,12,176.016,184.816,-45.186,28.43,256.416,484.43,228.03,456.043,684.043
"bas","ste",2,"197449","bas_ste_run2_197449","NP",7,1,"teeth",4000,0,1630,1,2,234416,243216,244846,45186,13,189.23,198.03,199.66,28.43,256.416,484.43,228.03,456.043,684.043
"bas","ste",2,"197449","bas_ste_run2_197449","NP",8,2,"kids",2800,0,0,NA,2,248816,257616,0,45186,14,203.63,212.43,-45.186,28.43,256.416,484.43,228.03,456.043,684.043
"bas","ste",2,"197449","bas_ste_run2_197449","RN",7,1,"jars",1600,1,658,1,1,262002,270802,271460,45186,15,216.816,225.616,226.274,28.43,256.416,484.43,228.03,456.043,684.043
"bas","ste",2,"197449","bas_ste_run2_197449","NP",5,3,"harp",4000,0,1041,1,2,304002,312802,313843,45186,16,258.816,267.616,268.657,28.43,256.416,484.43,228.03,456.043,684.043
"bas","ste",2,"197449","bas_ste_run2_197449","NN",8,2,"sled",1600,1,1705,1,1,318416,327216,328921,45186,17,273.23,282.03,283.735,28.43,256.416,484.43,228.03,456.043,684.043
"bas","ste",2,"197449","bas_ste_run2_197449","RN",8,1,"house",2800,0,0,NA,1,330416,339216,0,45186,18,285.23,294.03,-45.186,28.43,256.416,484.43,228.03,456.043,684.043
"bas","ste",2,"197449","bas_ste_run2_197449","NP",5,3,"store",2800,0,1395,1,2,343602,352402,353797,45186,19,298.416,307.216,308.611,28.43,256.416,484.43,228.03,456.043,684.043
"bas","ste",2,"197449","bas_ste_run2_197449","RN",5,1,"soil",4000,1,872,1,1,356816,365616,366488,45186,20,311.63,320.43,321.302,28.43,256.416,484.43,228.03,456.043,684.043
"bas","ste",2,"197449","bas_ste_run2_197449","NN",6,1,"zebra",1600,0,0,NA,1,371216,380016,0,45186,21,326.03,334.83,-45.186,28.43,256.416,484.43,228.03,456.043,684.043
"bas","ste",2,"197449","bas_ste_run2_197449","NP",8,2,"action",1600,0,961,1,2,383202,392002,392963,45186,22,338.016,346.816,347.777,28.43,256.416,484.43,228.03,456.043,684.043
"bas","ste",2,"197449","bas_ste_run2_197449","NN",7,1,"poison",1600,1,1303,1,1,395202,404016,405319,45186,23,350.016,358.83,360.133,28.43,256.416,484.43,228.03,456.043,684.043
"bas","ste",2,"197449","bas_ste_run2_197449","NN",5,2,"heaven",2800,0,0,NA,1,407216,416016,0,45186,24,362.03,370.83,-45.186,28.43,256.416,484.43,228.03,456.043,684.043
"bas","ste",2,"197449","bas_ste_run2_197449","NP",8,2,"text",4000,0,0,NA,2,420416,429202,0,45186,25,375.23,384.016,-45.186,28.43,256.416,484.43,228.03,456.043,684.043
"bas","ste",2,"197449","bas_ste_run2_197449","NP",5,3,"others",1600,0,0,NA,2,434802,443616,0,45186,26,389.616,398.43,-45.186,28.43,256.416,484.43,228.03,456.043,684.043
"bas","ste",2,"197449","bas_ste_run2_197449","NP",7,2,"crime",2800,0,1914,1,2,446816,455616,457530,45186,27,401.63,410.43,412.344,28.43,256.416,484.43,228.03,456.043,684.043
"bas","ste",2,"197449","bas_ste_run2_197449","NN",5,2,"barber",4000,0,0,NA,1,460016,468802,0,45186,28,414.83,423.616,-45.186,28.43,256.416,484.43,228.03,456.043,684.043
"bas","ste",2,"197449","bas_ste_run2_197449","NN",8,2,"steel",4000,0,0,NA,1,474402,483216,0,45186,29,429.216,438.03,-45.186,28.43,256.416,484.43,228.03,456.043,684.043
"bas","ste",2,"197449","bas_ste_run2_197449","NP",7,2,"cherry",2800,0,752,1,2,488816,497616,498368,45186,30,443.63,452.43,453.182,28.43,256.416,484.43,228.03,456.043,684.043
"bas","ste",2,"197449","bas_ste_run2_197449","NN",7,2,"book",4000,0,0,NA,1,532016,540816,0,45186,31,486.83,495.63,-45.186,28.43,256.416,484.43,228.03,456.043,684.043
"bas","ste",2,"197449","bas_ste_run2_197449","NP",7,1,"photo",2800,0,1402,1,2,546402,555202,556604,45186,32,501.216,510.016,511.418,28.43,256.416,484.43,228.03,456.043,684.043
"bas","ste",2,"197449","bas_ste_run2_197449","NP",6,1,"profit",4000,0,993,1,2,559616,568416,569409,45186,33,514.43,523.23,524.223,28.43,256.416,484.43,228.03,456.043,684.043
"bas","ste",2,"197449","bas_ste_run2_197449","NN",7,2,"word",1600,1,1509,1,1,574016,582816,584325,45186,34,528.83,537.63,539.139,28.43,256.416,484.43,228.03,456.043,684.043
"bas","ste",2,"197449","bas_ste_run2_197449","NP",8,3,"paper",2800,1,1137,2,2,586002,594802,595939,45186,35,540.816,549.616,550.753,28.43,256.416,484.43,228.03,456.043,684.043
"bas","ste",2,"197449","bas_ste_run2_197449","NP",8,3,"pony",1600,0,0,NA,2,599216,608016,0,45186,36,554.03,562.83,-45.186,28.43,256.416,484.43,228.03,456.043,684.043
"bas","ste",2,"197449","bas_ste_run2_197449","NP",5,3,"fluid",4000,0,1497,1,2,611216,620016,621513,45186,37,566.03,574.83,576.327,28.43,256.416,484.43,228.03,456.043,684.043
"bas","ste",2,"197449","bas_ste_run2_197449","NN",8,1,"church",4000,0,0,NA,1,625602,634402,0,45186,38,580.416,589.216,-45.186,28.43,256.416,484.43,228.03,456.043,684.043
"bas","ste",2,"197449","bas_ste_run2_197449","NN",5,2,"story",1600,0,0,NA,1,640016,648816,0,45186,39,594.83,603.63,-45.186,28.43,256.416,484.43,228.03,456.043,684.043
"bas","ste",2,"197449","bas_ste_run2_197449","NP",5,3,"yard",2800,0,0,NA,2,652016,660816,0,45186,40,606.83,615.63,-45.186,28.43,256.416,484.43,228.03,456.043,684.043
"bas","ste",2,"197449","bas_ste_run2_197449","RN",5,1,"owner",1600,0,0,NA,1,665202,674002,0,45186,41,620.016,628.816,-45.186,28.43,256.416,484.43,228.03,456.043,684.043
"bas","ste",2,"197449","bas_ste_run2_197449","NP",5,3,"honey",2800,0,0,NA,2,677202,686016,0,45186,42,632.016,640.83,-45.186,28.43,256.416,484.43,228.03,456.043,684.043
"bas","ste",2,"197449","bas_ste_run2_197449","NN",6,1,"cows",2800,0,0,NA,1,690416,699216,0,45186,43,645.23,654.03,-45.186,28.43,256.416,484.43,228.03,456.043,684.043
"bas","ste",2,"197449","bas_ste_run2_197449","NP",8,3,"pilot",4000,0,1415,1,2,703616,712402,713817,45186,44,658.43,667.216,668.631,28.43,256.416,484.43,228.03,456.043,684.043
"bas","ste",2,"197449","bas_ste_run2_197449","NN",5,2,"train",1600,0,0,NA,1,718002,726816,0,45186,45,672.816,681.63,-45.186,28.43,256.416,484.43,228.03,456.043,684.043
"pro","ste",1,"197449","pro_ste_run1_197449","NN",2,2,"vision",4000,0,0,NA,1,125763,134563,0,94920,1,30.843,39.643,-94.92,28.46,256.459,484.442,228.059,456.076,684.076
"pro","ste",1,"197449","pro_ste_run1_197449","NP",5,3,"park",2800,0,0,NA,2,140180,148980,0,94920,2,45.26,54.06,-94.92,28.46,256.459,484.442,228.059,456.076,684.076
"pro","ste",1,"197449","pro_ste_run1_197449","NN",4,1,"idea",2800,1,1292,1,1,153363,162163,163455,94920,3,58.443,67.243,68.535,28.46,256.459,484.442,228.059,456.076,684.076
"pro","ste",1,"197449","pro_ste_run1_197449","NP",5,3,"boiler",4000,1,844,2,2,166579,175379,176223,94920,4,71.659,80.459,81.303,28.46,256.459,484.442,228.059,456.076,684.076
"pro","ste",1,"197449","pro_ste_run1_197449","NP",3,2,"ranch",2800,1,1038,2,2,180963,189763,190801,94920,5,86.043,94.843,95.881,28.46,256.459,484.442,228.059,456.076,684.076
"pro","ste",1,"197449","pro_ste_run1_197449","NN",5,2,"deed",1600,1,1491,1,1,194179,202979,204470,94920,6,99.259,108.059,109.55,28.46,256.459,484.442,228.059,456.076,684.076
"pro","ste",1,"197449","pro_ste_run1_197449","NN",2,2,"access",2800,1,864,1,1,206163,214963,215827,94920,7,111.243,120.043,120.907,28.46,256.459,484.442,228.059,456.076,684.076
"pro","ste",1,"197449","pro_ste_run1_197449","NP",4,1,"ways",2800,1,1502,2,2,219379,228179,229681,94920,8,124.459,133.259,134.761,28.46,256.459,484.442,228.059,456.076,684.076
"pro","ste",1,"197449","pro_ste_run1_197449","RN",5,1,"keeper",1600,0,1066,2,1,232563,241363,242429,94920,9,137.643,146.443,147.509,28.46,256.459,484.442,228.059,456.076,684.076
"pro","ste",1,"197449","pro_ste_run1_197449","NN",5,2,"item",1600,1,901,1,1,244579,253379,254280,94920,10,149.659,158.459,159.36,28.46,256.459,484.442,228.059,456.076,684.076
"pro","ste",1,"197449","pro_ste_run1_197449","NN",3,1,"hope",1600,1,1268,1,1,256579,265379,266647,94920,11,161.659,170.459,171.727,28.46,256.459,484.442,228.059,456.076,684.076
"pro","ste",1,"197449","pro_ste_run1_197449","NP",5,3,"parent",4000,0,1376,1,2,268563,277363,278739,94920,12,173.643,182.443,183.819,28.46,256.459,484.442,228.059,456.076,684.076
"pro","ste",1,"197449","pro_ste_run1_197449","NP",2,2,"dryer",4000,1,952,2,2,282979,291779,292731,94920,13,188.059,196.859,197.811,28.46,256.459,484.442,228.059,456.076,684.076
"pro","ste",1,"197449","pro_ste_run1_197449","NP",2,2,"suit",1600,1,894,2,2,297363,306163,307057,94920,14,202.443,211.243,212.137,28.46,256.459,484.442,228.059,456.076,684.076
"pro","ste",1,"197449","pro_ste_run1_197449","NP",3,2,"nail",4000,0,1968,1,2,309379,318179,320147,94920,15,214.459,223.259,225.227,28.46,256.459,484.442,228.059,456.076,684.076
"pro","ste",1,"197449","pro_ste_run1_197449","NP",5,3,"menu",4000,1,1333,2,2,353779,362579,363912,94920,16,258.859,267.659,268.992,28.46,256.459,484.442,228.059,456.076,684.076
"pro","ste",1,"197449","pro_ste_run1_197449","NN",5,2,"rage",2800,1,1127,1,1,368163,376963,378090,94920,17,273.243,282.043,283.17,28.46,256.459,484.442,228.059,456.076,684.076
"pro","ste",1,"197449","pro_ste_run1_197449","NN",2,2,"laser",4000,1,912,1,1,381379,390179,391091,94920,18,286.459,295.259,296.171,28.46,256.459,484.442,228.059,456.076,684.076
"pro","ste",1,"197449","pro_ste_run1_197449","NP",2,3,"wool",1600,0,1323,1,2,395779,404579,405902,94920,19,300.859,309.659,310.982,28.46,256.459,484.442,228.059,456.076,684.076
"pro","ste",1,"197449","pro_ste_run1_197449","NP",5,3,"color",4000,0,1276,1,2,407779,416579,417855,94920,20,312.859,321.659,322.935,28.46,256.459,484.442,228.059,456.076,684.076
"pro","ste",1,"197449","pro_ste_run1_197449","NP",3,2,"saint",2800,1,944,2,2,422179,430979,431923,94920,21,327.259,336.059,337.003,28.46,256.459,484.442,228.059,456.076,684.076
"pro","ste",1,"197449","pro_ste_run1_197449","NN",4,1,"critic",1600,0,1425,2,1,435379,444179,445604,94920,22,340.459,349.259,350.684,28.46,256.459,484.442,228.059,456.076,684.076
"pro","ste",1,"197449","pro_ste_run1_197449","NN",5,2,"roses",1600,0,0,NA,1,447363,456163,0,94920,23,352.443,361.243,-94.92,28.46,256.459,484.442,228.059,456.076,684.076
"pro","ste",1,"197449","pro_ste_run1_197449","NN",3,1,"rumor",4000,0,1118,2,1,459379,468179,469297,94920,24,364.459,373.259,374.377,28.46,256.459,484.442,228.059,456.076,684.076
"pro","ste",1,"197449","pro_ste_run1_197449","NP",3,2,"heel",2800,0,0,NA,2,473763,482563,0,94920,25,378.843,387.643,-94.92,28.46,256.459,484.442,228.059,456.076,684.076
"pro","ste",1,"197449","pro_ste_run1_197449","RN",5,1,"shell",2800,0,1273,2,1,486979,495779,497052,94920,26,392.059,400.859,402.132,28.46,256.459,484.442,228.059,456.076,684.076
"pro","ste",1,"197449","pro_ste_run1_197449","NP",5,3,"review",2800,0,1193,1,2,500163,508963,510156,94920,27,405.243,414.043,415.236,28.46,256.459,484.442,228.059,456.076,684.076
"pro","ste",1,"197449","pro_ste_run1_197449","NN",2,2,"rash",4000,0,0,NA,1,513379,522179,0,94920,28,418.459,427.259,-94.92,28.46,256.459,484.442,228.059,456.076,684.076
"pro","ste",1,"197449","pro_ste_run1_197449","NP",2,3,"chip",1600,0,0,NA,2,527762,536562,0,94920,29,432.842,441.642,-94.92,28.46,256.459,484.442,228.059,456.076,684.076
"pro","ste",1,"197449","pro_ste_run1_197449","NP",2,3,"parade",1600,0,1512,1,2,539779,548579,550091,94920,30,444.859,453.659,455.171,28.46,256.459,484.442,228.059,456.076,684.076
"pro","ste",1,"197449","pro_ste_run1_197449","NP",4,1,"verse",2800,0,0,NA,2,581762,590562,0,94920,31,486.842,495.642,-94.92,28.46,256.459,484.442,228.059,456.076,684.076
"pro","ste",1,"197449","pro_ste_run1_197449","NN",3,2,"torch",4000,1,997,1,1,594979,603779,604776,94920,32,500.059,508.859,509.856,28.46,256.459,484.442,228.059,456.076,684.076
"pro","ste",1,"197449","pro_ste_run1_197449","NN",5,2,"deal",4000,1,1786,1,1,609379,618179,619965,94920,33,514.459,523.259,525.045,28.46,256.459,484.442,228.059,456.076,684.076
"pro","ste",1,"197449","pro_ste_run1_197449","NP",5,3,"clay",1600,0,908,1,2,623762,632562,633470,94920,34,528.842,537.642,538.55,28.46,256.459,484.442,228.059,456.076,684.076
"pro","ste",1,"197449","pro_ste_run1_197449","NP",5,3,"forest",2800,0,0,NA,2,635779,644579,0,94920,35,540.859,549.659,-94.92,28.46,256.459,484.442,228.059,456.076,684.076
"pro","ste",1,"197449","pro_ste_run1_197449","NP",3,1,"charge",2800,0,0,NA,2,648979,657779,0,94920,36,554.059,562.859,-94.92,28.46,256.459,484.442,228.059,456.076,684.076
"pro","ste",1,"197449","pro_ste_run1_197449","NN",2,2,"moose",4000,1,1176,1,1,662179,670979,672155,94920,37,567.259,576.059,577.235,28.46,256.459,484.442,228.059,456.076,684.076
"pro","ste",1,"197449","pro_ste_run1_197449","RN",5,1,"chest",4000,0,0,NA,1,676562,685362,0,94920,38,581.642,590.442,-94.92,28.46,256.459,484.442,228.059,456.076,684.076
"pro","ste",1,"197449","pro_ste_run1_197449","NP",2,2,"paste",1600,0,0,NA,2,690979,699779,0,94920,39,596.059,604.859,-94.92,28.46,256.459,484.442,228.059,456.076,684.076
"pro","ste",1,"197449","pro_ste_run1_197449","NN",3,2,"donor",1600,0,0,NA,1,702962,711762,0,94920,40,608.042,616.842,-94.92,28.46,256.459,484.442,228.059,456.076,684.076
"pro","ste",1,"197449","pro_ste_run1_197449","NP",5,3,"advice",2800,0,0,NA,2,714962,723762,0,94920,41,620.042,628.842,-94.92,28.46,256.459,484.442,228.059,456.076,684.076
"pro","ste",1,"197449","pro_ste_run1_197449","NN",2,2,"work",4000,1,1550,1,1,728179,736979,738529,94920,42,633.259,642.059,643.609,28.46,256.459,484.442,228.059,456.076,684.076
"pro","ste",1,"197449","pro_ste_run1_197449","RN",2,1,"bags",1600,0,0,NA,1,742579,751379,0,94920,43,647.659,656.459,-94.92,28.46,256.459,484.442,228.059,456.076,684.076
"pro","ste",1,"197449","pro_ste_run1_197449","NN",5,2,"group",2800,0,0,NA,1,754579,763379,0,94920,44,659.659,668.459,-94.92,28.46,256.459,484.442,228.059,456.076,684.076
"pro","ste",1,"197449","pro_ste_run1_197449","NP",2,2,"guys",1600,0,1001,1,2,767762,776562,777563,94920,45,672.842,681.642,682.643,28.46,256.459,484.442,228.059,456.076,684.076
"pro","ste",2,"197449","pro_ste_run2_197449","NN",4,1,"campus",4000,1,1277,1,1,112813,121613,122890,81972,1,30.841,39.641,40.918,28.441,256.424,484.44,228.024,456.04,684.04
"pro","ste",2,"197449","pro_ste_run2_197449","NP",5,3,"snap",1600,1,971,2,2,127213,136013,136984,81972,2,45.241,54.041,55.012,28.441,256.424,484.44,228.024,456.04,684.04
"pro","ste",2,"197449","pro_ste_run2_197449","NP",4,1,"belief",1600,0,1141,1,2,139213,148013,149154,81972,3,57.241,66.041,67.182,28.441,256.424,484.44,228.024,456.04,684.04
"pro","ste",2,"197449","pro_ste_run2_197449","NP",3,1,"drip",4000,1,850,2,2,151196,159996,160846,81972,4,69.224,78.024,78.874,28.441,256.424,484.44,228.024,456.04,684.04
"pro","ste",2,"197449","pro_ste_run2_197449","NP",2,2,"bottle",2800,1,1037,2,2,165613,174413,175450,81972,5,83.641,92.441,93.478,28.441,256.424,484.44,228.024,456.04,684.04
"pro","ste",2,"197449","pro_ste_run2_197449","RN",5,1,"level",1600,0,1007,2,1,178796,187596,188603,81972,6,96.824,105.624,106.631,28.441,256.424,484.44,228.024,456.04,684.04
"pro","ste",2,"197449","pro_ste_run2_197449","NN",2,2,"spice",4000,1,1533,1,1,190813,199613,201146,81972,7,108.841,117.641,119.174,28.441,256.424,484.44,228.024,456.04,684.04
"pro","ste",2,"197449","pro_ste_run2_197449","NN",2,2,"coal",4000,1,1624,1,1,205196,213996,215620,81972,8,123.224,132.024,133.648,28.441,256.424,484.44,228.024,456.04,684.04
"pro","ste",2,"197449","pro_ste_run2_197449","NN",3,1,"film",4000,1,1227,1,1,219613,228413,229640,81972,9,137.641,146.441,147.668,28.441,256.424,484.44,228.024,456.04,684.04
"pro","ste",2,"197449","pro_ste_run2_197449","RN",3,1,"singer",1600,1,1507,1,1,234013,242813,244320,81972,10,152.041,160.841,162.348,28.441,256.424,484.44,228.024,456.04,684.04
"pro","ste",2,"197449","pro_ste_run2_197449","NN",5,2,"herd",1600,1,857,1,1,246013,254813,255670,81972,11,164.041,172.841,173.698,28.441,256.424,484.44,228.024,456.04,684.04
"pro","ste",2,"197449","pro_ste_run2_197449","NP",5,3,"flight",2800,0,1367,1,2,257996,266796,268163,81972,12,176.024,184.824,186.191,28.441,256.424,484.44,228.024,456.04,684.04
"pro","ste",2,"197449","pro_ste_run2_197449","NP",2,2,"quote",2800,1,1163,2,2,271213,280013,281176,81972,13,189.241,198.041,199.204,28.441,256.424,484.44,228.024,456.04,684.04
"pro","ste",2,"197449","pro_ste_run2_197449","NN",5,2,"fury",2800,1,1238,1,1,284396,293196,294434,81972,14,202.424,211.224,212.462,28.441,256.424,484.44,228.024,456.04,684.04
"pro","ste",2,"197449","pro_ste_run2_197449","NP",5,3,"stroke",2800,0,960,1,2,297613,306413,307373,81972,15,215.641,224.441,225.401,28.441,256.424,484.44,228.024,456.04,684.04
"pro","ste",2,"197449","pro_ste_run2_197449","NP",3,2,"gold",2800,1,1103,2,2,340813,349613,350716,81972,16,258.841,267.641,268.744,28.441,256.424,484.44,228.024,456.04,684.04
"pro","ste",2,"197449","pro_ste_run2_197449","NP",3,2,"sailor",4000,0,1662,1,2,353996,362796,364458,81972,17,272.024,280.824,282.486,28.441,256.424,484.44,228.024,456.04,684.04
"pro","ste",2,"197449","pro_ste_run2_197449","NP",5,3,"thing",1600,1,995,2,2,368413,377213,378208,81972,18,286.441,295.241,296.236,28.441,256.424,484.44,228.024,456.04,684.04
"pro","ste",2,"197449","pro_ste_run2_197449","NN",5,2,"kids",4000,1,796,1,1,380396,389196,389992,81972,19,298.424,307.224,308.02,28.441,256.424,484.44,228.024,456.04,684.04
"pro","ste",2,"197449","pro_ste_run2_197449","RN",2,1,"onion",1600,1,700,1,1,394813,403613,404313,81972,20,312.841,321.641,322.341,28.441,256.424,484.44,228.024,456.04,684.04
"pro","ste",2,"197449","pro_ste_run2_197449","NP",5,3,"grill",2800,0,1219,1,2,406796,415596,416815,81972,21,324.824,333.624,334.843,28.441,256.424,484.44,228.024,456.04,684.04
"pro","ste",2,"197449","pro_ste_run2_197449","NN",4,1,"barber",1600,0,0,NA,1,420013,428813,0,81972,22,338.041,346.841,-81.972,28.441,256.424,484.44,228.024,456.04,684.04
"pro","ste",2,"197449","pro_ste_run2_197449","NN",2,2,"flaw",2800,1,1197,1,1,432013,440812,442009,81972,23,350.041,358.84,360.037,28.441,256.424,484.44,228.024,456.04,684.04
"pro","ste",2,"197449","pro_ste_run2_197449","NN",3,1,"grain",1600,1,1114,1,1,445196,453996,455110,81972,24,363.224,372.024,373.138,28.441,256.424,484.44,228.024,456.04,684.04
"pro","ste",2,"197449","pro_ste_run2_197449","NP",2,2,"nerve",1600,1,1133,2,2,457212,466012,467145,81972,25,375.24,384.04,385.173,28.441,256.424,484.44,228.024,456.04,684.04
"pro","ste",2,"197449","pro_ste_run2_197449","NP",5,3,"class",4000,0,1055,1,2,469196,477996,479051,81972,26,387.224,396.024,397.079,28.441,256.424,484.44,228.024,456.04,684.04
"pro","ste",2,"197449","pro_ste_run2_197449","NN",2,2,"tally",4000,1,915,1,1,483612,492412,493327,81972,27,401.64,410.44,411.355,28.441,256.424,484.44,228.024,456.04,684.04
"pro","ste",2,"197449","pro_ste_run2_197449","NP",2,2,"photo",2800,1,878,2,2,497996,506796,507674,81972,28,416.024,424.824,425.702,28.441,256.424,484.44,228.024,456.04,684.04
"pro","ste",2,"197449","pro_ste_run2_197449","NN",5,2,"zebra",4000,1,1048,1,1,511212,520012,521060,81972,29,429.24,438.04,439.088,28.441,256.424,484.44,228.024,456.04,684.04
"pro","ste",2,"197449","pro_ste_run2_197449","RN",5,1,"pupil",2800,0,1094,2,1,525612,534412,535506,81972,30,443.64,452.44,453.534,28.441,256.424,484.44,228.024,456.04,684.04
"pro","ste",2,"197449","pro_ste_run2_197449","NN",2,1,"list",2800,1,921,1,1,568796,577596,578517,81972,31,486.824,495.624,496.545,28.441,256.424,484.44,228.024,456.04,684.04
"pro","ste",2,"197449","pro_ste_run2_197449","NP",3,1,"tissue",4000,0,0,NA,2,582012,590812,0,81972,32,500.04,508.84,-81.972,28.441,256.424,484.44,228.024,456.04,684.04
"pro","ste",2,"197449","pro_ste_run2_197449","NP",2,3,"point",4000,1,1304,2,2,596396,605196,606500,81972,33,514.424,523.224,524.528,28.441,256.424,484.44,228.024,456.04,684.04
"pro","ste",2,"197449","pro_ste_run2_197449","NN",5,2,"output",2800,1,1176,1,1,610812,619612,620788,81972,34,528.84,537.64,538.816,28.441,256.424,484.44,228.024,456.04,684.04
"pro","ste",2,"197449","pro_ste_run2_197449","NP",5,3,"finger",2800,0,955,1,2,624012,632812,633767,81972,35,542.04,550.84,551.795,28.441,256.424,484.44,228.024,456.04,684.04
"pro","ste",2,"197449","pro_ste_run2_197449","NP",2,3,"grace",1600,0,0,NA,2,637212,646012,0,81972,36,555.24,564.04,-81.972,28.441,256.424,484.44,228.024,456.04,684.04
"pro","ste",2,"197449","pro_ste_run2_197449","NN",3,2,"filter",1600,1,1709,1,1,649196,657996,659705,81972,37,567.224,576.024,577.733,28.441,256.424,484.44,228.024,456.04,684.04
"pro","ste",2,"197449","pro_ste_run2_197449","NP",5,3,"click",1600,1,978,2,2,661212,670012,670990,81972,38,579.24,588.04,589.018,28.441,256.424,484.44,228.024,456.04,684.04
"pro","ste",2,"197449","pro_ste_run2_197449","NN",3,2,"cows",1600,1,994,1,1,673196,682012,683006,81972,39,591.224,600.04,601.034,28.441,256.424,484.44,228.024,456.04,684.04
"pro","ste",2,"197449","pro_ste_run2_197449","RN",5,1,"need",4000,1,1095,1,1,685196,693996,695091,81972,40,603.224,612.024,613.119,28.441,256.424,484.44,228.024,456.04,684.04
"pro","ste",2,"197449","pro_ste_run2_197449","NP",5,3,"void",2800,1,675,2,2,699612,708412,709087,81972,41,617.64,626.44,627.115,28.441,256.424,484.44,228.024,456.04,684.04
"pro","ste",2,"197449","pro_ste_run2_197449","NP",2,3,"talent",4000,0,1093,1,2,712812,721612,722705,81972,42,630.84,639.64,640.733,28.441,256.424,484.44,228.024,456.04,684.04
"pro","ste",2,"197449","pro_ste_run2_197449","NP",4,1,"clown",4000,0,0,NA,2,727196,735996,0,81972,43,645.224,654.024,-81.972,28.441,256.424,484.44,228.024,456.04,684.04
"pro","ste",2,"197449","pro_ste_run2_197449","NN",5,2,"signal",2800,1,796,1,1,741612,750412,751208,81972,44,659.64,668.44,669.236,28.441,256.424,484.44,228.024,456.04,684.04
"pro","ste",2,"197449","pro_ste_run2_197449","NN",4,1,"grip",1600,0,0,NA,1,754796,763596,0,81972,45,672.824,681.624,-81.972,28.441,256.424,484.44,228.024,456.04,684.04
"rea","ste",1,"197449","rea_ste_run1_197449","NP",8,2,"brow",2800,0,0,NA,2,137652,146452,0,106794,1,30.858,39.658,-106.794,28.458,256.442,484.441,228.058,456.058,684.058
"rea","ste",1,"197449","rea_ste_run1_197449","RN",5,2,"jets",4000,1,857,1,1,150852,159652,160509,106794,2,44.058,52.858,53.715,28.458,256.442,484.441,228.058,456.058,684.058
"rea","ste",1,"197449","rea_ste_run1_197449","NP",5,3,"touch",1600,1,978,2,2,165236,174036,175014,106794,3,58.442,67.242,68.22,28.458,256.442,484.441,228.058,456.058,684.058
"rea","ste",1,"197449","rea_ste_run1_197449","NP",5,3,"pound",4000,1,1032,2,2,177252,186052,187084,106794,4,70.458,79.258,80.29,28.458,256.442,484.441,228.058,456.058,684.058
"rea","ste",1,"197449","rea_ste_run1_197449","RN",7,1,"rivals",1600,0,1157,2,1,191636,200436,201593,106794,5,84.842,93.642,94.799,28.458,256.442,484.441,228.058,456.058,684.058
"rea","ste",1,"197449","rea_ste_run1_197449","NP",6,1,"name",1600,0,1172,1,2,203652,212452,213624,106794,6,96.858,105.658,106.83,28.458,256.442,484.441,228.058,456.058,684.058
"rea","ste",1,"197449","rea_ste_run1_197449","NP",7,2,"world",4000,0,1006,1,2,215652,224452,225458,106794,7,108.858,117.658,118.664,28.458,256.442,484.441,228.058,456.058,684.058
"rea","ste",1,"197449","rea_ste_run1_197449","RN",8,2,"marker",4000,1,1203,1,1,230035,238836,240039,106794,8,123.241,132.042,133.245,28.458,256.442,484.441,228.058,456.058,684.058
"rea","ste",1,"197449","rea_ste_run1_197449","NP",5,3,"wife",4000,1,1128,2,2,244452,253252,254380,106794,9,137.658,146.458,147.586,28.458,256.442,484.441,228.058,456.058,684.058
"rea","ste",1,"197449","rea_ste_run1_197449","RN",5,2,"paper",2800,1,1405,1,1,258852,267652,269057,106794,10,152.058,160.858,162.263,28.458,256.442,484.441,228.058,456.058,684.058
"rea","ste",1,"197449","rea_ste_run1_197449","NN",5,1,"chin",2800,1,872,1,1,272036,280836,281708,106794,11,165.242,174.042,174.914,28.458,256.442,484.441,228.058,456.058,684.058
"rea","ste",1,"197449","rea_ste_run1_197449","NP",7,2,"grill",2800,1,1091,2,2,285252,294052,295143,106794,12,178.458,187.258,188.349,28.458,256.442,484.441,228.058,456.058,684.058
"rea","ste",1,"197449","rea_ste_run1_197449","RN",8,2,"rhyme",1600,0,994,2,1,298435,307235,308229,106794,13,191.641,200.441,201.435,28.458,256.442,484.441,228.058,456.058,684.058
"rea","ste",1,"197449","rea_ste_run1_197449","NP",8,2,"goods",1600,1,844,2,2,310452,319252,320096,106794,14,203.658,212.458,213.302,28.458,256.442,484.441,228.058,456.058,684.058
"rea","ste",1,"197449","rea_ste_run1_197449","RN",6,1,"reign",2800,1,1099,1,1,322452,331252,332351,106794,15,215.658,224.458,225.557,28.458,256.442,484.441,228.058,456.058,684.058
"rea","ste",1,"197449","rea_ste_run1_197449","NP",5,3,"harbor",2800,1,1063,2,2,365652,374452,375515,106794,16,258.858,267.658,268.721,28.458,256.442,484.441,228.058,456.058,684.058
"rea","ste",1,"197449","rea_ste_run1_197449","RN",7,1,"boat",1600,1,1131,1,1,378835,387635,388766,106794,17,272.041,280.841,281.972,28.458,256.442,484.441,228.058,456.058,684.058
"rea","ste",1,"197449","rea_ste_run1_197449","RN",8,2,"hour",2800,0,960,2,1,390852,399652,400612,106794,18,284.058,292.858,293.818,28.458,256.442,484.441,228.058,456.058,684.058
"rea","ste",1,"197449","rea_ste_run1_197449","NP",8,3,"tongue",1600,1,935,2,2,404052,412852,413787,106794,19,297.258,306.058,306.993,28.458,256.442,484.441,228.058,456.058,684.058
"rea","ste",1,"197449","rea_ste_run1_197449","RN",6,1,"beam",4000,0,1552,2,1,416035,424835,426387,106794,20,309.241,318.041,319.593,28.458,256.442,484.441,228.058,456.058,684.058
"rea","ste",1,"197449","rea_ste_run1_197449","NN",5,1,"ruler",4000,0,0,NA,1,430452,439252,0,106794,21,323.658,332.458,-106.794,28.458,256.442,484.441,228.058,456.058,684.058
"rea","ste",1,"197449","rea_ste_run1_197449","NP",5,3,"dryer",4000,1,1484,2,2,444852,453652,455136,106794,22,338.058,346.858,348.342,28.458,256.442,484.441,228.058,456.058,684.058
"rea","ste",1,"197449","rea_ste_run1_197449","RN",8,2,"jazz",1600,1,1132,1,1,459235,468035,469167,106794,23,352.441,361.241,362.373,28.458,256.442,484.441,228.058,456.058,684.058
"rea","ste",1,"197449","rea_ste_run1_197449","RN",5,2,"blaze",2800,1,1879,1,1,471252,480052,481931,106794,24,364.458,373.258,375.137,28.458,256.442,484.441,228.058,456.058,684.058
"rea","ste",1,"197449","rea_ste_run1_197449","NP",8,3,"visit",1600,0,1254,1,2,484452,493252,494506,106794,25,377.658,386.458,387.712,28.458,256.442,484.441,228.058,456.058,684.058
"rea","ste",1,"197449","rea_ste_run1_197449","RN",5,2,"ideals",4000,0,1140,2,1,496436,505235,506375,106794,26,389.642,398.441,399.581,28.458,256.442,484.441,228.058,456.058,684.058
"rea","ste",1,"197449","rea_ste_run1_197449","NP",5,3,"plate",2800,1,1111,2,2,510852,519652,520763,106794,27,404.058,412.858,413.969,28.458,256.442,484.441,228.058,456.058,684.058
"rea","ste",1,"197449","rea_ste_run1_197449","NP",7,2,"spark",2800,0,1688,1,2,524052,532852,534540,106794,28,417.258,426.058,427.746,28.458,256.442,484.441,228.058,456.058,684.058
"rea","ste",1,"197449","rea_ste_run1_197449","NP",8,3,"males",1600,0,1333,1,2,537252,546052,547385,106794,29,430.458,439.258,440.591,28.458,256.442,484.441,228.058,456.058,684.058
"rea","ste",1,"197449","rea_ste_run1_197449","NP",7,2,"setup",4000,1,1035,2,2,549235,558035,559070,106794,30,442.441,451.241,452.276,28.458,256.442,484.441,228.058,456.058,684.058
"rea","ste",1,"197449","rea_ste_run1_197449","NP",5,3,"answer",4000,0,1774,1,2,593635,602435,604209,106794,31,486.841,495.641,497.415,28.458,256.442,484.441,228.058,456.058,684.058
"rea","ste",1,"197449","rea_ste_run1_197449","RN",5,2,"hawk",4000,0,614,2,1,608052,616852,617466,106794,32,501.258,510.058,510.672,28.458,256.442,484.441,228.058,456.058,684.058
"rea","ste",1,"197449","rea_ste_run1_197449","NN",8,1,"train",2800,1,745,1,1,622452,631252,631997,106794,33,515.658,524.458,525.203,28.458,256.442,484.441,228.058,456.058,684.058
"rea","ste",1,"197449","rea_ste_run1_197449","RN",8,2,"poppy",4000,0,959,2,1,635635,644435,645394,106794,34,528.841,537.641,538.6,28.458,256.442,484.441,228.058,456.058,684.058
"rea","ste",1,"197449","rea_ste_run1_197449","RN",7,2,"wave",1600,1,1293,1,1,650052,658852,660145,106794,35,543.258,552.058,553.351,28.458,256.442,484.441,228.058,456.058,684.058
"rea","ste",1,"197449","rea_ste_run1_197449","RN",8,2,"days",1600,0,1052,2,1,662052,670852,671904,106794,36,555.258,564.058,565.11,28.458,256.442,484.441,228.058,456.058,684.058
"rea","ste",1,"197449","rea_ste_run1_197449","RN",7,2,"need",4000,1,1245,1,1,674035,682835,684080,106794,37,567.241,576.041,577.286,28.458,256.442,484.441,228.058,456.058,684.058
"rea","ste",1,"197449","rea_ste_run1_197449","NP",5,3,"hose",1600,0,1188,1,2,688452,697252,698440,106794,38,581.658,590.458,591.646,28.458,256.442,484.441,228.058,456.058,684.058
"rea","ste",1,"197449","rea_ste_run1_197449","RN",5,2,"drip",1600,1,1130,1,1,700435,709235,710365,106794,39,593.641,602.441,603.571,28.458,256.442,484.441,228.058,456.058,684.058
"rea","ste",1,"197449","rea_ste_run1_197449","NN",5,1,"finger",2800,0,0,NA,1,712452,721252,0,106794,40,605.658,614.458,-106.794,28.458,256.442,484.441,228.058,456.058,684.058
"rea","ste",1,"197449","rea_ste_run1_197449","NP",8,2,"charge",2800,0,1351,1,2,725635,734435,735786,106794,41,618.841,627.641,628.992,28.458,256.442,484.441,228.058,456.058,684.058
"rea","ste",1,"197449","rea_ste_run1_197449","NP",7,1,"drum",4000,1,1316,2,2,738852,747652,748968,106794,42,632.058,640.858,642.174,28.458,256.442,484.441,228.058,456.058,684.058
"rea","ste",1,"197449","rea_ste_run1_197449","NP",5,3,"spell",2800,0,1044,1,2,753235,762035,763079,106794,43,646.441,655.241,656.285,28.458,256.442,484.441,228.058,456.058,684.058
"rea","ste",1,"197449","rea_ste_run1_197449","NP",6,1,"people",1600,0,1494,1,2,766452,775252,776746,106794,44,659.658,668.458,669.952,28.458,256.442,484.441,228.058,456.058,684.058
"rea","ste",1,"197449","rea_ste_run1_197449","NP",8,2,"rattle",2800,0,1755,1,2,778435,787235,788990,106794,45,671.641,680.441,682.196,28.458,256.442,484.441,228.058,456.058,684.058
"rea","ste",2,"197449","rea_ste_run2_197449","NN",5,1,"food",1600,1,1295,1,1,69935,78735,80030,39130,1,30.805,39.605,40.9,28.405,256.421,484.421,228.038,456.021,684.038
"rea","ste",2,"197449","rea_ste_run2_197449","NP",8,2,"rider",1600,1,909,2,2,81952,90752,91661,39130,2,42.822,51.622,52.531,28.405,256.421,484.421,228.038,456.021,684.038
"rea","ste",2,"197449","rea_ste_run2_197449","RN",8,2,"slug",4000,0,759,2,1,93935,102735,103494,39130,3,54.805,63.605,64.364,28.405,256.421,484.421,228.038,456.021,684.038
"rea","ste",2,"197449","rea_ste_run2_197449","RN",8,2,"witch",2800,0,826,2,1,108352,117152,117978,39130,4,69.222,78.022,78.848,28.405,256.421,484.421,228.038,456.021,684.038
"rea","ste",2,"197449","rea_ste_run2_197449","RN",5,2,"stain",4000,0,0,NA,1,121535,130335,0,39130,5,82.405,91.205,-39.13,28.405,256.421,484.421,228.038,456.021,684.038
"rea","ste",2,"197449","rea_ste_run2_197449","NN",7,1,"herd",4000,1,1401,1,1,135952,144752,146153,39130,6,96.822,105.622,107.023,28.405,256.421,484.421,228.038,456.021,684.038
"rea","ste",2,"197449","rea_ste_run2_197449","NP",7,1,"flag",4000,0,1177,1,2,150352,159152,160329,39130,7,111.222,120.022,121.199,28.405,256.421,484.421,228.038,456.021,684.038
"rea","ste",2,"197449","rea_ste_run2_197449","RN",6,1,"maid",2800,1,956,1,1,164735,173535,174491,39130,8,125.605,134.405,135.361,28.405,256.421,484.421,228.038,456.021,684.038
"rea","ste",2,"197449","rea_ste_run2_197449","NP",6,1,"wall",4000,0,1099,1,2,177952,186752,187851,39130,9,138.822,147.622,148.721,28.405,256.421,484.421,228.038,456.021,684.038
"rea","ste",2,"197449","rea_ste_run2_197449","NP",5,3,"zipper",2800,1,804,2,2,192335,201135,201939,39130,10,153.205,162.005,162.809,28.405,256.421,484.421,228.038,456.021,684.038
"rea","ste",2,"197449","rea_ste_run2_197449","RN",5,2,"pair",1600,1,908,1,1,205552,214352,215260,39130,11,166.422,175.222,176.13,28.405,256.421,484.421,228.038,456.021,684.038
"rea","ste",2,"197449","rea_ste_run2_197449","NP",8,2,"tree",2800,0,1124,1,2,217552,226352,227476,39130,12,178.422,187.222,188.346,28.405,256.421,484.421,228.038,456.021,684.038
"rea","ste",2,"197449","rea_ste_run2_197449","NP",5,3,"photo",1600,1,1509,2,2,230752,239551,241060,39130,13,191.622,200.421,201.93,28.405,256.421,484.421,228.038,456.021,684.038
"rea","ste",2,"197449","rea_ste_run2_197449","NP",5,3,"girl",1600,0,1001,1,2,242752,251551,252552,39130,14,203.622,212.421,213.422,28.405,256.421,484.421,228.038,456.021,684.038
"rea","ste",2,"197449","rea_ste_run2_197449","RN",7,1,"quart",2800,1,1124,1,1,254735,263535,264659,39130,15,215.605,224.405,225.529,28.405,256.421,484.421,228.038,456.021,684.038
"rea","ste",2,"197449","rea_ste_run2_197449","NN",8,1,"rest",1600,1,1005,1,1,297935,306751,307756,39130,16,258.805,267.621,268.626,28.405,256.421,484.421,228.038,456.021,684.038
"rea","ste",2,"197449","rea_ste_run2_197449","NP",7,2,"singer",2800,0,1117,1,2,309935,318735,319852,39130,17,270.805,279.605,280.722,28.405,256.421,484.421,228.038,456.021,684.038
"rea","ste",2,"197449","rea_ste_run2_197449","RN",8,2,"prince",1600,1,1064,1,1,323151,331951,333015,39130,18,284.021,292.821,293.885,28.405,256.421,484.421,228.038,456.021,684.038
"rea","ste",2,"197449","rea_ste_run2_197449","NP",5,3,"pals",4000,1,1186,2,2,335135,343935,345121,39130,19,296.005,304.805,305.991,28.405,256.421,484.421,228.038,456.021,684.038
"rea","ste",2,"197449","rea_ste_run2_197449","NP",5,3,"cotton",1600,0,1867,1,2,349551,358351,360218,39130,20,310.421,319.221,321.088,28.405,256.421,484.421,228.038,456.021,684.038
"rea","ste",2,"197449","rea_ste_run2_197449","NP",5,3,"chest",4000,0,1878,1,2,361535,370335,372213,39130,21,322.405,331.205,333.083,28.405,256.421,484.421,228.038,456.021,684.038
"rea","ste",2,"197449","rea_ste_run2_197449","NP",8,2,"dawn",2800,1,966,2,2,375951,384751,385717,39130,22,336.821,345.621,346.587,28.405,256.421,484.421,228.038,456.021,684.038
"rea","ste",2,"197449","rea_ste_run2_197449","RN",5,2,"praise",4000,1,1891,1,1,389135,397935,399826,39130,23,350.005,358.805,360.696,28.405,256.421,484.421,228.038,456.021,684.038
"rea","ste",2,"197449","rea_ste_run2_197449","RN",5,2,"walker",2800,1,1729,1,1,403551,412351,414080,39130,24,364.421,373.221,374.95,28.405,256.421,484.421,228.038,456.021,684.038
"rea","ste",2,"197449","rea_ste_run2_197449","NN",5,1,"grass",2800,1,964,1,1,416751,425535,426499,39130,25,377.621,386.405,387.369,28.405,256.421,484.421,228.038,456.021,684.038
"rea","ste",2,"197449","rea_ste_run2_197449","NP",8,2,"charm",1600,0,841,1,2,429951,438751,439592,39130,26,390.821,399.621,400.462,28.405,256.421,484.421,228.038,456.021,684.038
"rea","ste",2,"197449","rea_ste_run2_197449","RN",8,2,"barber",4000,1,882,1,1,441935,450735,451617,39130,27,402.805,411.605,412.487,28.405,256.421,484.421,228.038,456.021,684.038
"rea","ste",2,"197449","rea_ste_run2_197449","RN",6,1,"motor",1600,0,1291,2,1,456351,465151,466442,39130,28,417.221,426.021,427.312,28.405,256.421,484.421,228.038,456.021,684.038
"rea","ste",2,"197449","rea_ste_run2_197449","RN",7,1,"east",2800,1,1155,1,1,468335,477135,478290,39130,29,429.205,438.005,439.16,28.405,256.421,484.421,228.038,456.021,684.038
"rea","ste",2,"197449","rea_ste_run2_197449","NP",7,2,"oats",4000,1,1774,2,2,481551,490351,492125,39130,30,442.421,451.221,452.995,28.405,256.421,484.421,228.038,456.021,684.038
"rea","ste",2,"197449","rea_ste_run2_197449","NP",8,3,"slip",2800,0,1214,1,2,525951,534751,535965,39130,31,486.821,495.621,496.835,28.405,256.421,484.421,228.038,456.021,684.038
"rea","ste",2,"197449","rea_ste_run2_197449","RN",7,2,"note",2800,0,615,2,1,539135,547935,548550,39130,32,500.005,508.805,509.42,28.405,256.421,484.421,228.038,456.021,684.038
"rea","ste",2,"197449","rea_ste_run2_197449","RN",5,2,"tile",1600,0,0,NA,1,552351,561151,0,39130,33,513.221,522.021,-39.13,28.405,256.421,484.421,228.038,456.021,684.038
"rea","ste",2,"197449","rea_ste_run2_197449","NP",5,3,"winner",4000,1,929,2,2,564351,573151,574080,39130,34,525.221,534.021,534.95,28.405,256.421,484.421,228.038,456.021,684.038
"rea","ste",2,"197449","rea_ste_run2_197449","NN",5,1,"flick",2800,1,1381,1,1,578751,587551,588932,39130,35,539.621,548.421,549.802,28.405,256.421,484.421,228.038,456.021,684.038
"rea","ste",2,"197449","rea_ste_run2_197449","NP",8,3,"glove",4000,1,882,2,2,591935,600735,601617,39130,36,552.805,561.605,562.487,28.405,256.421,484.421,228.038,456.021,684.038
"rea","ste",2,"197449","rea_ste_run2_197449","RN",5,2,"list",1600,1,854,1,1,606351,615151,616005,39130,37,567.221,576.021,576.875,28.405,256.421,484.421,228.038,456.021,684.038
"rea","ste",2,"197449","rea_ste_run2_197449","NP",5,3,"beach",1600,0,1396,1,2,618335,627135,628531,39130,38,579.205,588.005,589.401,28.405,256.421,484.421,228.038,456.021,684.038
"rea","ste",2,"197449","rea_ste_run2_197449","NP",5,3,"bugs",1600,0,1639,1,2,630351,639151,640790,39130,39,591.221,600.021,601.66,28.405,256.421,484.421,228.038,456.021,684.038
"rea","ste",2,"197449","rea_ste_run2_197449","NP",7,1,"suit",4000,1,930,2,2,642351,651151,652081,39130,40,603.221,612.021,612.951,28.405,256.421,484.421,228.038,456.021,684.038
"rea","ste",2,"197449","rea_ste_run2_197449","RN",8,1,"dock",4000,1,1193,1,1,656751,665551,666744,39130,41,617.621,626.421,627.614,28.405,256.421,484.421,228.038,456.021,684.038
"rea","ste",2,"197449","rea_ste_run2_197449","RN",6,1,"folder",2800,0,0,NA,1,671135,679935,0,39130,42,632.005,640.805,-39.13,28.405,256.421,484.421,228.038,456.021,684.038
"rea","ste",2,"197449","rea_ste_run2_197449","NP",8,3,"owner",1600,0,832,1,2,684351,693151,693983,39130,43,645.221,654.021,654.853,28.405,256.421,484.421,228.038,456.021,684.038
"rea","ste",2,"197449","rea_ste_run2_197449","NP",6,1,"washer",4000,0,0,NA,2,696351,705151,0,39130,44,657.221,666.021,-39.13,28.405,256.421,484.421,228.038,456.021,684.038
"rea","ste",2,"197449","rea_ste_run2_197449","RN",7,2,"void",2800,1,891,1,1,710751,719551,720442,39130,45,671.621,680.421,681.312,28.405,256.421,484.421,228.038,456.021,684.038
"bas","ste",1,"672756","bas_ste_run1_672756","NP",5,3,"syrup",4000,1,575,2,2,141673,150487,151062,110825,1,30.848,39.662,40.237,28.448,256.462,484.462,228.049,456.062,684.049
"bas","ste",1,"672756","bas_ste_run1_672756","NN",8,2,"scale",1600,1,594,1,1,156087,164887,165481,110825,2,45.262,54.062,54.656,28.448,256.462,484.462,228.049,456.062,684.049
"bas","ste",1,"672756","bas_ste_run1_672756","NN",8,2,"doll",2800,1,625,1,1,168087,176873,177498,110825,3,57.262,66.048,66.673,28.448,256.462,484.462,228.049,456.062,684.049
"bas","ste",1,"672756","bas_ste_run1_672756","NP",5,3,"threat",2800,1,997,2,2,181273,190087,191084,110825,4,70.448,79.262,80.259,28.448,256.462,484.462,228.049,456.062,684.049
"bas","ste",1,"672756","bas_ste_run1_672756","NN",6,1,"parrot",4000,1,984,1,1,194487,203287,204271,110825,5,83.662,92.462,93.446,28.448,256.462,484.462,228.049,456.062,684.049
"bas","ste",1,"672756","bas_ste_run1_672756","NP",8,2,"chance",1600,0,1199,1,2,208887,217673,218872,110825,6,98.062,106.848,108.047,28.448,256.462,484.462,228.049,456.062,684.049
"bas","ste",1,"672756","bas_ste_run1_672756","NN",5,2,"blur",4000,1,631,1,1,220874,229674,230305,110825,7,110.049,118.849,119.48,28.448,256.462,484.462,228.049,456.062,684.049
"bas","ste",1,"672756","bas_ste_run1_672756","NP",7,2,"rash",1600,1,1321,2,2,235287,244087,245408,110825,8,124.462,133.262,134.583,28.448,256.462,484.462,228.049,456.062,684.049
"bas","ste",1,"672756","bas_ste_run1_672756","NN",5,2,"tube",2800,1,1493,1,1,247287,256087,257580,110825,9,136.462,145.262,146.755,28.448,256.462,484.462,228.049,456.062,684.049
"bas","ste",1,"672756","bas_ste_run1_672756","NP",5,3,"share",1600,1,814,2,2,260474,269274,270088,110825,10,149.649,158.449,159.263,28.448,256.462,484.462,228.049,456.062,684.049
"bas","ste",1,"672756","bas_ste_run1_672756","NP",7,2,"wealth",2800,1,1082,2,2,272487,281287,282369,110825,11,161.662,170.462,171.544,28.448,256.462,484.462,228.049,456.062,684.049
"bas","ste",1,"672756","bas_ste_run1_672756","NP",8,2,"bush",4000,1,981,2,2,285687,294487,295468,110825,12,174.862,183.662,184.643,28.448,256.462,484.462,228.049,456.062,684.049
"bas","ste",1,"672756","bas_ste_run1_672756","NN",7,1,"straw",4000,0,1256,2,1,300074,308874,310130,110825,13,189.249,198.049,199.305,28.448,256.462,484.462,228.049,456.062,684.049
"bas","ste",1,"672756","bas_ste_run1_672756","NP",6,1,"frost",2800,1,527,2,2,314487,323287,323814,110825,14,203.662,212.462,212.989,28.448,256.462,484.462,228.049,456.062,684.049
"bas","ste",1,"672756","bas_ste_run1_672756","RN",5,1,"quart",1600,1,1039,1,1,327687,336487,337526,110825,15,216.862,225.662,226.701,28.448,256.462,484.462,228.049,456.062,684.049
"bas","ste",1,"672756","bas_ste_run1_672756","NN",6,1,"taxi",1600,1,713,1,1,369687,378487,379200,110825,16,258.862,267.662,268.375,28.448,256.462,484.462,228.049,456.062,684.049
"bas","ste",1,"672756","bas_ste_run1_672756","NN",8,2,"liar",2800,1,843,1,1,381674,390474,391317,110825,17,270.849,279.649,280.492,28.448,256.462,484.462,228.049,456.062,684.049
"bas","ste",1,"672756","bas_ste_run1_672756","NP",7,2,"need",2800,0,877,1,2,394887,403687,404564,110825,18,284.062,292.862,293.739,28.448,256.462,484.462,228.049,456.062,684.049
"bas","ste",1,"672756","bas_ste_run1_672756","NP",7,2,"bean",4000,1,877,2,2,408087,416887,417764,110825,19,297.262,306.062,306.939,28.448,256.462,484.462,228.049,456.062,684.049
"bas","ste",1,"672756","bas_ste_run1_672756","NP",8,3,"bees",1600,1,1178,2,2,422474,431274,432452,110825,20,311.649,320.449,321.627,28.448,256.462,484.462,228.049,456.062,684.049
"bas","ste",1,"672756","bas_ste_run1_672756","NP",5,3,"visit",1600,0,1351,1,2,434487,443287,444638,110825,21,323.662,332.462,333.813,28.448,256.462,484.462,228.049,456.062,684.049
"bas","ste",1,"672756","bas_ste_run1_672756","NN",7,1,"logic",4000,1,925,1,1,446487,455287,456212,110825,22,335.662,344.462,345.387,28.448,256.462,484.462,228.049,456.062,684.049
"bas","ste",1,"672756","bas_ste_run1_672756","NP",5,3,"people",2800,1,881,2,2,460874,469674,470555,110825,23,350.049,358.849,359.73,28.448,256.462,484.462,228.049,456.062,684.049
"bas","ste",1,"672756","bas_ste_run1_672756","NN",8,2,"heater",4000,1,801,1,1,474087,482887,483688,110825,24,363.262,372.062,372.863,28.448,256.462,484.462,228.049,456.062,684.049
"bas","ste",1,"672756","bas_ste_run1_672756","RN",5,1,"noise",1600,1,1305,1,1,488487,497287,498592,110825,25,377.662,386.462,387.767,28.448,256.462,484.462,228.049,456.062,684.049
"bas","ste",1,"672756","bas_ste_run1_672756","NN",5,2,"pole",2800,1,1928,1,1,500474,509274,511202,110825,26,389.649,398.449,400.377,28.448,256.462,484.462,228.049,456.062,684.049
"bas","ste",1,"672756","bas_ste_run1_672756","NP",8,3,"city",4000,0,816,1,2,513674,522487,523303,110825,27,402.849,411.662,412.478,28.448,256.462,484.462,228.049,456.062,684.049
"bas","ste",1,"672756","bas_ste_run1_672756","NP",8,3,"carpet",4000,1,924,2,2,528087,536887,537811,110825,28,417.262,426.062,426.986,28.448,256.462,484.462,228.049,456.062,684.049
"bas","ste",1,"672756","bas_ste_run1_672756","NP",5,3,"tags",1600,1,787,2,2,542474,551274,552061,110825,29,431.649,440.449,441.236,28.448,256.462,484.462,228.049,456.062,684.049
"bas","ste",1,"672756","bas_ste_run1_672756","NN",5,2,"greed",2800,1,550,1,1,554487,563287,563837,110825,30,443.662,452.462,453.012,28.448,256.462,484.462,228.049,456.062,684.049
"bas","ste",1,"672756","bas_ste_run1_672756","NN",5,2,"pans",2800,1,1196,1,1,597687,606487,607683,110825,31,486.862,495.662,496.858,28.448,256.462,484.462,228.049,456.062,684.049
"bas","ste",1,"672756","bas_ste_run1_672756","NP",5,3,"muscle",1600,1,712,2,2,610887,619687,620399,110825,32,500.062,508.862,509.574,28.448,256.462,484.462,228.049,456.062,684.049
"bas","ste",1,"672756","bas_ste_run1_672756","NP",8,2,"bugs",1600,1,1135,2,2,622874,631674,632809,110825,33,512.049,520.849,521.984,28.448,256.462,484.462,228.049,456.062,684.049
"bas","ste",1,"672756","bas_ste_run1_672756","RN",5,1,"fusion",4000,1,1133,1,1,634874,643687,644820,110825,34,524.049,532.862,533.995,28.448,256.462,484.462,228.049,456.062,684.049
"bas","ste",1,"672756","bas_ste_run1_672756","NN",8,2,"shell",4000,1,746,1,1,649287,658087,658833,110825,35,538.462,547.262,548.008,28.448,256.462,484.462,228.049,456.062,684.049
"bas","ste",1,"672756","bas_ste_run1_672756","NP",7,1,"clue",4000,1,946,2,2,663674,672474,673420,110825,36,552.849,561.649,562.595,28.448,256.462,484.462,228.049,456.062,684.049
"bas","ste",1,"672756","bas_ste_run1_672756","NP",8,2,"wife",2800,1,816,2,2,678087,686887,687703,110825,37,567.262,576.062,576.878,28.448,256.462,484.462,228.049,456.062,684.049
"bas","ste",1,"672756","bas_ste_run1_672756","NN",5,2,"gift",2800,1,802,1,1,691287,700087,700889,110825,38,580.462,589.262,590.064,28.448,256.462,484.462,228.049,456.062,684.049
"bas","ste",1,"672756","bas_ste_run1_672756","NP",6,1,"food",1600,1,1109,2,2,704474,713274,714383,110825,39,593.649,602.449,603.558,28.448,256.462,484.462,228.049,456.062,684.049
"bas","ste",1,"672756","bas_ste_run1_672756","RN",8,1,"ground",4000,0,797,2,1,716474,725287,726084,110825,40,605.649,614.462,615.259,28.448,256.462,484.462,228.049,456.062,684.049
"bas","ste",1,"672756","bas_ste_run1_672756","NP",5,3,"marker",4000,0,1385,1,2,730887,739687,741072,110825,41,620.062,628.862,630.247,28.448,256.462,484.462,228.049,456.062,684.049
"bas","ste",1,"672756","bas_ste_run1_672756","NN",8,2,"signal",1600,1,941,1,1,745274,754074,755015,110825,42,634.449,643.249,644.19,28.448,256.462,484.462,228.049,456.062,684.049
"bas","ste",1,"672756","bas_ste_run1_672756","NP",5,3,"curve",1600,1,695,2,2,757287,766087,766782,110825,43,646.462,655.262,655.957,28.448,256.462,484.462,228.049,456.062,684.049
"bas","ste",1,"672756","bas_ste_run1_672756","NN",7,2,"pledge",2800,1,551,1,1,769287,778087,778638,110825,44,658.462,667.262,667.813,28.448,256.462,484.462,228.049,456.062,684.049
"bas","ste",1,"672756","bas_ste_run1_672756","NN",7,2,"berry",2800,1,704,1,1,782487,791274,791978,110825,45,671.662,680.449,681.153,28.448,256.462,484.462,228.049,456.062,684.049
"bas","ste",2,"672756","bas_ste_run2_672756","NP",5,3,"north",4000,0,1563,1,2,73181,81981,83544,42352,1,30.829,39.629,41.192,28.429,256.416,484.429,228.029,456.043,684.043
"bas","ste",2,"672756","bas_ste_run2_672756","NP",5,3,"ransom",1600,1,770,2,2,87581,96367,97137,42352,2,45.229,54.015,54.785,28.429,256.416,484.429,228.029,456.043,684.043
"bas","ste",2,"672756","bas_ste_run2_672756","NN",5,2,"chin",2800,1,902,1,1,99567,108367,109269,42352,3,57.215,66.015,66.917,28.429,256.416,484.429,228.029,456.043,684.043
"bas","ste",2,"672756","bas_ste_run2_672756","NN",6,1,"whale",4000,1,945,1,1,112781,121581,122526,42352,4,70.429,79.229,80.174,28.429,256.416,484.429,228.029,456.043,684.043
"bas","ste",2,"672756","bas_ste_run2_672756","NN",8,2,"cotton",2800,1,985,1,1,127181,135967,136952,42352,5,84.829,93.615,94.6,28.429,256.416,484.429,228.029,456.043,684.043
"bas","ste",2,"672756","bas_ste_run2_672756","NP",5,3,"wheel",4000,1,869,2,2,140367,149167,150036,42352,6,98.015,106.815,107.684,28.429,256.416,484.429,228.029,456.043,684.043
"bas","ste",2,"672756","bas_ste_run2_672756","RN",5,1,"cabin",2800,1,637,1,1,154781,163581,164218,42352,7,112.429,121.229,121.866,28.429,256.416,484.429,228.029,456.043,684.043
"bas","ste",2,"672756","bas_ste_run2_672756","NN",5,2,"hatch",1600,1,650,1,1,167981,176768,177418,42352,8,125.629,134.416,135.066,28.429,256.416,484.429,228.029,456.043,684.043
"bas","ste",2,"672756","bas_ste_run2_672756","NN",7,1,"flame",2800,1,804,1,1,179968,188768,189572,42352,9,137.616,146.416,147.22,28.429,256.416,484.429,228.029,456.043,684.043
"bas","ste",2,"672756","bas_ste_run2_672756","NP",6,1,"dollar",1600,1,1120,2,2,193181,201981,203101,42352,10,150.829,159.629,160.749,28.429,256.416,484.429,228.029,456.043,684.043
"bas","ste",2,"672756","bas_ste_run2_672756","NP",8,2,"exam",1600,1,551,2,2,205181,213981,214532,42352,11,162.829,171.629,172.18,28.429,256.416,484.429,228.029,456.043,684.043
"bas","ste",2,"672756","bas_ste_run2_672756","NN",8,2,"lesson",4000,1,918,1,1,217168,225968,226886,42352,12,174.816,183.616,184.534,28.429,256.416,484.429,228.029,456.043,684.043
"bas","ste",2,"672756","bas_ste_run2_672756","NP",7,1,"teeth",2800,1,864,2,2,231581,240381,241245,42352,13,189.229,198.029,198.893,28.429,256.416,484.429,228.029,456.043,684.043
"bas","ste",2,"672756","bas_ste_run2_672756","NP",8,2,"kids",1600,0,1001,1,2,244781,253581,254582,42352,14,202.429,211.229,212.23,28.429,256.416,484.429,228.029,456.043,684.043
"bas","ste",2,"672756","bas_ste_run2_672756","RN",7,1,"jars",4000,0,1191,2,1,256768,265568,266759,42352,15,214.416,223.216,224.407,28.429,256.416,484.429,228.029,456.043,684.043
"bas","ste",2,"672756","bas_ste_run2_672756","NP",5,3,"harp",2800,1,985,2,2,301168,309968,310953,42352,16,258.816,267.616,268.601,28.429,256.416,484.429,228.029,456.043,684.043
"bas","ste",2,"672756","bas_ste_run2_672756","NN",8,2,"sled",4000,1,1058,1,1,314381,323181,324239,42352,17,272.029,280.829,281.887,28.429,256.416,484.429,228.029,456.043,684.043
"bas","ste",2,"672756","bas_ste_run2_672756","RN",8,1,"house",1600,0,922,2,1,328781,337581,338503,42352,18,286.429,295.229,296.151,28.429,256.416,484.429,228.029,456.043,684.043
"bas","ste",2,"672756","bas_ste_run2_672756","NP",5,3,"store",1600,1,768,2,2,340768,349568,350336,42352,19,298.416,307.216,307.984,28.429,256.416,484.429,228.029,456.043,684.043
"bas","ste",2,"672756","bas_ste_run2_672756","RN",5,1,"soil",2800,0,0,NA,1,352781,361581,0,42352,20,310.429,319.229,-42.352,28.429,256.416,484.429,228.029,456.043,684.043
"bas","ste",2,"672756","bas_ste_run2_672756","NN",6,1,"zebra",2800,1,601,1,1,365981,374781,375382,42352,21,323.629,332.429,333.03,28.429,256.416,484.429,228.029,456.043,684.043
"bas","ste",2,"672756","bas_ste_run2_672756","NP",8,2,"action",4000,1,834,2,2,379168,387968,388802,42352,22,336.816,345.616,346.45,28.429,256.416,484.429,228.029,456.043,684.043
"bas","ste",2,"672756","bas_ste_run2_672756","NN",7,1,"poison",1600,1,1123,1,1,393581,402381,403504,42352,23,351.229,360.029,361.152,28.429,256.416,484.429,228.029,456.043,684.043
"bas","ste",2,"672756","bas_ste_run2_672756","NN",5,2,"heaven",2800,1,617,1,1,405581,414381,414998,42352,24,363.229,372.029,372.646,28.429,256.416,484.429,228.029,456.043,684.043
"bas","ste",2,"672756","bas_ste_run2_672756","NP",8,2,"text",4000,1,442,2,2,418768,427568,428010,42352,25,376.416,385.216,385.658,28.429,256.416,484.429,228.029,456.043,684.043
"bas","ste",2,"672756","bas_ste_run2_672756","NP",5,3,"others",4000,1,886,2,2,433181,441981,442867,42352,26,390.829,399.629,400.515,28.429,256.416,484.429,228.029,456.043,684.043
"bas","ste",2,"672756","bas_ste_run2_672756","NP",7,2,"crime",1600,0,1011,1,2,447581,456381,457392,42352,27,405.229,414.029,415.04,28.429,256.416,484.429,228.029,456.043,684.043
"bas","ste",2,"672756","bas_ste_run2_672756","NN",5,2,"barber",4000,1,872,1,1,459568,468368,469240,42352,28,417.216,426.016,426.888,28.429,256.416,484.429,228.029,456.043,684.043
"bas","ste",2,"672756","bas_ste_run2_672756","NN",8,2,"steel",2800,1,1048,1,1,473981,482781,483829,42352,29,431.629,440.429,441.477,28.429,256.416,484.429,228.029,456.043,684.043
"bas","ste",2,"672756","bas_ste_run2_672756","NP",7,2,"cherry",1600,1,429,2,2,487181,495981,496410,42352,30,444.829,453.629,454.058,28.429,256.416,484.429,228.029,456.043,684.043
"bas","ste",2,"672756","bas_ste_run2_672756","NN",7,2,"book",2800,1,823,1,1,529181,537981,538804,42352,31,486.829,495.629,496.452,28.429,256.416,484.429,228.029,456.043,684.043
"bas","ste",2,"672756","bas_ste_run2_672756","NP",7,1,"photo",2800,1,822,2,2,542368,551168,551990,42352,32,500.016,508.816,509.638,28.429,256.416,484.429,228.029,456.043,684.043
"bas","ste",2,"672756","bas_ste_run2_672756","NP",6,1,"profit",4000,1,847,2,2,555581,564381,565228,42352,33,513.229,522.029,522.876,28.429,256.416,484.429,228.029,456.043,684.043
"bas","ste",2,"672756","bas_ste_run2_672756","NN",7,2,"word",1600,0,1377,2,1,569981,578781,580158,42352,34,527.629,536.429,537.806,28.429,256.416,484.429,228.029,456.043,684.043
"bas","ste",2,"672756","bas_ste_run2_672756","NP",8,3,"paper",1600,1,848,2,2,581968,590768,591616,42352,35,539.616,548.416,549.264,28.429,256.416,484.429,228.029,456.043,684.043
"bas","ste",2,"672756","bas_ste_run2_672756","NP",8,3,"pony",4000,0,1186,1,2,593968,602781,603967,42352,36,551.616,560.429,561.615,28.429,256.416,484.429,228.029,456.043,684.043
"bas","ste",2,"672756","bas_ste_run2_672756","NP",5,3,"fluid",2800,1,720,2,2,608381,617181,617901,42352,37,566.029,574.829,575.549,28.429,256.416,484.429,228.029,456.043,684.043
"bas","ste",2,"672756","bas_ste_run2_672756","NN",8,1,"church",4000,1,1962,1,1,621568,630368,632330,42352,38,579.216,588.016,589.978,28.429,256.416,484.429,228.029,456.043,684.043
"bas","ste",2,"672756","bas_ste_run2_672756","NN",5,2,"story",4000,1,708,1,1,635981,644781,645489,42352,39,593.629,602.429,603.137,28.429,256.416,484.429,228.029,456.043,684.043
"bas","ste",2,"672756","bas_ste_run2_672756","NP",5,3,"yard",4000,1,755,2,2,650381,659181,659936,42352,40,608.029,616.829,617.584,28.429,256.416,484.429,228.029,456.043,684.043
"bas","ste",2,"672756","bas_ste_run2_672756","RN",5,1,"owner",1600,1,842,1,1,664768,673568,674410,42352,41,622.416,631.216,632.058,28.429,256.416,484.429,228.029,456.043,684.043
"bas","ste",2,"672756","bas_ste_run2_672756","NP",5,3,"honey",2800,1,886,2,2,676781,685581,686467,42352,42,634.429,643.229,644.115,28.429,256.416,484.429,228.029,456.043,684.043
"bas","ste",2,"672756","bas_ste_run2_672756","NN",6,1,"cows",2800,1,855,1,1,689981,698781,699636,42352,43,647.629,656.429,657.284,28.429,256.416,484.429,228.029,456.043,684.043
"bas","ste",2,"672756","bas_ste_run2_672756","NP",8,3,"pilot",1600,1,1514,2,2,703168,711968,713482,42352,44,660.816,669.616,671.13,28.429,256.416,484.429,228.029,456.043,684.043
"bas","ste",2,"672756","bas_ste_run2_672756","NN",5,2,"train",1600,1,691,1,1,715168,723981,724672,42352,45,672.816,681.629,682.32,28.429,256.416,484.429,228.029,456.043,684.043
"pro","ste",1,"672756","pro_ste_run1_672756","NN",2,2,"vision",2800,0,0,NA,1,127129,135916,0,96293,1,30.836,39.623,-96.293,28.436,256.437,484.437,228.037,456.023,684.037
"pro","ste",1,"672756","pro_ste_run1_672756","NP",5,3,"park",1600,1,1259,2,2,140316,149116,150375,96293,2,44.023,52.823,54.082,28.436,256.437,484.437,228.037,456.023,684.037
"pro","ste",1,"672756","pro_ste_run1_672756","NN",4,1,"idea",4000,1,965,1,1,152329,161129,162094,96293,3,56.036,64.836,65.801,28.436,256.437,484.437,228.037,456.023,684.037
"pro","ste",1,"672756","pro_ste_run1_672756","NP",5,3,"boiler",2800,1,887,2,2,166729,175529,176416,96293,4,70.436,79.236,80.123,28.436,256.437,484.437,228.037,456.023,684.037
"pro","ste",1,"672756","pro_ste_run1_672756","NP",3,2,"ranch",4000,1,1068,2,2,179916,188716,189784,96293,5,83.623,92.423,93.491,28.436,256.437,484.437,228.037,456.023,684.037
"pro","ste",1,"672756","pro_ste_run1_672756","NN",5,2,"deed",4000,1,1024,1,1,194329,203129,204153,96293,6,98.036,106.836,107.86,28.436,256.437,484.437,228.037,456.023,684.037
"pro","ste",1,"672756","pro_ste_run1_672756","NN",2,2,"access",1600,1,814,1,1,208729,217516,218330,96293,7,112.436,121.223,122.037,28.436,256.437,484.437,228.037,456.023,684.037
"pro","ste",1,"672756","pro_ste_run1_672756","NP",4,1,"ways",1600,1,1259,2,2,220716,229516,230775,96293,8,124.423,133.223,134.482,28.436,256.437,484.437,228.037,456.023,684.037
"pro","ste",1,"672756","pro_ste_run1_672756","RN",5,1,"keeper",1600,1,1332,1,1,232729,241529,242861,96293,9,136.436,145.236,146.568,28.436,256.437,484.437,228.037,456.023,684.037
"pro","ste",1,"672756","pro_ste_run1_672756","NN",5,2,"item",2800,1,617,1,1,244729,253529,254146,96293,10,148.436,157.236,157.853,28.436,256.437,484.437,228.037,456.023,684.037
"pro","ste",1,"672756","pro_ste_run1_672756","NN",3,1,"hope",4000,1,716,1,1,257916,266716,267432,96293,11,161.623,170.423,171.139,28.436,256.437,484.437,228.037,456.023,684.037
"pro","ste",1,"672756","pro_ste_run1_672756","NP",5,3,"parent",4000,1,969,2,2,272329,281129,282098,96293,12,176.036,184.836,185.805,28.436,256.437,484.437,228.037,456.023,684.037
"pro","ste",1,"672756","pro_ste_run1_672756","NP",2,2,"dryer",1600,1,598,2,2,286729,295529,296127,96293,13,190.436,199.236,199.834,28.436,256.437,484.437,228.037,456.023,684.037
"pro","ste",1,"672756","pro_ste_run1_672756","NP",2,2,"suit",2800,1,744,2,2,298716,307516,308260,96293,14,202.423,211.223,211.967,28.436,256.437,484.437,228.037,456.023,684.037
"pro","ste",1,"672756","pro_ste_run1_672756","NP",3,2,"nail",2800,1,703,2,2,311930,320730,321433,96293,15,215.637,224.437,225.14,28.436,256.437,484.437,228.037,456.023,684.037
"pro","ste",1,"672756","pro_ste_run1_672756","NP",5,3,"menu",4000,1,654,2,2,355130,363930,364584,96293,16,258.837,267.637,268.291,28.436,256.437,484.437,228.037,456.023,684.037
"pro","ste",1,"672756","pro_ste_run1_672756","NN",5,2,"rage",1600,1,699,1,1,369530,378330,379029,96293,17,273.237,282.037,282.736,28.436,256.437,484.437,228.037,456.023,684.037
"pro","ste",1,"672756","pro_ste_run1_672756","NN",2,2,"laser",1600,1,976,1,1,381516,390316,391292,96293,18,285.223,294.023,294.999,28.436,256.437,484.437,228.037,456.023,684.037
"pro","ste",1,"672756","pro_ste_run1_672756","NP",2,3,"wool",4000,1,750,2,2,393530,402330,403080,96293,19,297.237,306.037,306.787,28.436,256.437,484.437,228.037,456.023,684.037
"pro","ste",1,"672756","pro_ste_run1_672756","NP",5,3,"color",4000,1,604,2,2,407930,416730,417334,96293,20,311.637,320.437,321.041,28.436,256.437,484.437,228.037,456.023,684.037
"pro","ste",1,"672756","pro_ste_run1_672756","NP",3,2,"saint",1600,1,562,2,2,422316,431116,431678,96293,21,326.023,334.823,335.385,28.436,256.437,484.437,228.037,456.023,684.037
"pro","ste",1,"672756","pro_ste_run1_672756","NN",4,1,"critic",2800,1,666,1,1,434330,443130,443796,96293,22,338.037,346.837,347.503,28.436,256.437,484.437,228.037,456.023,684.037
"pro","ste",1,"672756","pro_ste_run1_672756","NN",5,2,"roses",2800,1,503,1,1,447530,456330,456833,96293,23,351.237,360.037,360.54,28.436,256.437,484.437,228.037,456.023,684.037
"pro","ste",1,"672756","pro_ste_run1_672756","NN",3,1,"rumor",2800,1,670,1,1,460716,469516,470186,96293,24,364.423,373.223,373.893,28.436,256.437,484.437,228.037,456.023,684.037
"pro","ste",1,"672756","pro_ste_run1_672756","NP",3,2,"heel",2800,1,631,2,2,473930,482730,483361,96293,25,377.637,386.437,387.068,28.436,256.437,484.437,228.037,456.023,684.037
"pro","ste",1,"672756","pro_ste_run1_672756","RN",5,1,"shell",2800,1,821,1,1,487130,495930,496751,96293,26,390.837,399.637,400.458,28.436,256.437,484.437,228.037,456.023,684.037
"pro","ste",1,"672756","pro_ste_run1_672756","NP",5,3,"review",1600,1,652,2,2,500316,509116,509768,96293,27,404.023,412.823,413.475,28.436,256.437,484.437,228.037,456.023,684.037
"pro","ste",1,"672756","pro_ste_run1_672756","NN",2,2,"rash",4000,1,570,1,1,512316,521130,521700,96293,28,416.023,424.837,425.407,28.436,256.437,484.437,228.037,456.023,684.037
"pro","ste",1,"672756","pro_ste_run1_672756","NP",2,3,"chip",4000,1,526,2,2,526730,535530,536056,96293,29,430.437,439.237,439.763,28.436,256.437,484.437,228.037,456.023,684.037
"pro","ste",1,"672756","pro_ste_run1_672756","NP",2,3,"parade",1600,1,661,2,2,541116,549916,550577,96293,30,444.823,453.623,454.284,28.436,256.437,484.437,228.037,456.023,684.037
"pro","ste",1,"672756","pro_ste_run1_672756","NP",4,1,"verse",1600,1,1050,2,2,583116,591916,592966,96293,31,486.823,495.623,496.673,28.436,256.437,484.437,228.037,456.023,684.037
"pro","ste",1,"672756","pro_ste_run1_672756","NN",3,2,"torch",1600,1,643,1,1,595117,603930,604573,96293,32,498.824,507.637,508.28,28.436,256.437,484.437,228.037,456.023,684.037
"pro","ste",1,"672756","pro_ste_run1_672756","NN",5,2,"deal",4000,1,1171,1,1,607130,615930,617101,96293,33,510.837,519.637,520.808,28.436,256.437,484.437,228.037,456.023,684.037
"pro","ste",1,"672756","pro_ste_run1_672756","NP",5,3,"clay",4000,1,414,2,2,621530,630317,630731,96293,34,525.237,534.024,534.438,28.436,256.437,484.437,228.037,456.023,684.037
"pro","ste",1,"672756","pro_ste_run1_672756","NP",5,3,"forest",2800,1,1181,2,2,635930,644730,645911,96293,35,539.637,548.437,549.618,28.436,256.437,484.437,228.037,456.023,684.037
"pro","ste",1,"672756","pro_ste_run1_672756","NP",3,1,"charge",1600,1,914,2,2,649130,657930,658844,96293,36,552.837,561.637,562.551,28.436,256.437,484.437,228.037,456.023,684.037
"pro","ste",1,"672756","pro_ste_run1_672756","NN",2,2,"moose",4000,1,548,1,1,661130,669917,670465,96293,37,564.837,573.624,574.172,28.436,256.437,484.437,228.037,456.023,684.037
"pro","ste",1,"672756","pro_ste_run1_672756","RN",5,1,"chest",2800,1,892,1,1,675517,684330,685222,96293,38,579.224,588.037,588.929,28.436,256.437,484.437,228.037,456.023,684.037
"pro","ste",1,"672756","pro_ste_run1_672756","NP",2,2,"paste",1600,1,709,2,2,688730,697530,698239,96293,39,592.437,601.237,601.946,28.436,256.437,484.437,228.037,456.023,684.037
"pro","ste",1,"672756","pro_ste_run1_672756","NN",3,2,"donor",4000,1,598,1,1,700730,709517,710115,96293,40,604.437,613.224,613.822,28.436,256.437,484.437,228.037,456.023,684.037
"pro","ste",1,"672756","pro_ste_run1_672756","NP",5,3,"advice",2800,1,604,2,2,715117,723930,724534,96293,41,618.824,627.637,628.241,28.436,256.437,484.437,228.037,456.023,684.037
"pro","ste",1,"672756","pro_ste_run1_672756","NN",2,2,"work",1600,1,673,1,1,728330,737130,737803,96293,42,632.037,640.837,641.51,28.436,256.437,484.437,228.037,456.023,684.037
"pro","ste",1,"672756","pro_ste_run1_672756","RN",2,1,"bags",2800,1,790,1,1,740330,749117,749907,96293,43,644.037,652.824,653.614,28.436,256.437,484.437,228.037,456.023,684.037
"pro","ste",1,"672756","pro_ste_run1_672756","NN",5,2,"group",2800,1,795,1,1,753517,762330,763125,96293,44,657.224,666.037,666.832,28.436,256.437,484.437,228.037,456.023,684.037
"pro","ste",1,"672756","pro_ste_run1_672756","NP",2,2,"guys",4000,1,1030,2,2,766730,775530,776560,96293,45,670.437,679.237,680.267,28.436,256.437,484.437,228.037,456.023,684.037
"pro","ste",2,"672756","pro_ste_run2_672756","NN",4,1,"campus",2800,1,768,1,1,69349,78149,78917,38520,1,30.829,39.629,40.397,28.429,256.429,484.43,228.029,456.043,684.03
"pro","ste",2,"672756","pro_ste_run2_672756","NP",5,3,"snap",4000,1,678,2,2,82549,91349,92027,38520,2,44.029,52.829,53.507,28.429,256.429,484.43,228.029,456.043,684.03
"pro","ste",2,"672756","pro_ste_run2_672756","NP",4,1,"belief",2800,1,878,2,2,96936,105736,106614,38520,3,58.416,67.216,68.094,28.429,256.429,484.43,228.029,456.043,684.03
"pro","ste",2,"672756","pro_ste_run2_672756","NP",3,1,"drip",1600,1,609,2,2,110149,118949,119558,38520,4,71.629,80.429,81.038,28.429,256.429,484.43,228.029,456.043,684.03
"pro","ste",2,"672756","pro_ste_run2_672756","NP",2,2,"bottle",2800,1,464,2,2,122149,130949,131413,38520,5,83.629,92.429,92.893,28.429,256.429,484.43,228.029,456.043,684.03
"pro","ste",2,"672756","pro_ste_run2_672756","RN",5,1,"level",1600,0,658,2,1,135336,144136,144794,38520,6,96.816,105.616,106.274,28.429,256.429,484.43,228.029,456.043,684.03
"pro","ste",2,"672756","pro_ste_run2_672756","NN",2,2,"spice",4000,1,756,1,1,147349,156149,156905,38520,7,108.829,117.629,118.385,28.429,256.429,484.43,228.029,456.043,684.03
"pro","ste",2,"672756","pro_ste_run2_672756","NN",2,2,"coal",1600,1,605,1,1,161749,170549,171154,38520,8,123.229,132.029,132.634,28.429,256.429,484.43,228.029,456.043,684.03
"pro","ste",2,"672756","pro_ste_run2_672756","NN",3,1,"film",2800,1,556,1,1,173736,182536,183092,38520,9,135.216,144.016,144.572,28.429,256.429,484.43,228.029,456.043,684.03
"pro","ste",2,"672756","pro_ste_run2_672756","RN",3,1,"singer",1600,1,881,1,1,186936,195749,196630,38520,10,148.416,157.229,158.11,28.429,256.429,484.43,228.029,456.043,684.03
"pro","ste",2,"672756","pro_ste_run2_672756","NN",5,2,"herd",4000,1,661,1,1,198949,207749,208410,38520,11,160.429,169.229,169.89,28.429,256.429,484.43,228.029,456.043,684.03
"pro","ste",2,"672756","pro_ste_run2_672756","NP",5,3,"flight",4000,1,525,2,2,213349,222136,222661,38520,12,174.829,183.616,184.141,28.429,256.429,484.43,228.029,456.043,684.03
"pro","ste",2,"672756","pro_ste_run2_672756","NP",2,2,"quote",1600,1,558,2,2,227736,236549,237107,38520,13,189.216,198.029,198.587,28.429,256.429,484.43,228.029,456.043,684.03
"pro","ste",2,"672756","pro_ste_run2_672756","NN",5,2,"fury",2800,1,671,1,1,239749,248549,249220,38520,14,201.229,210.029,210.7,28.429,256.429,484.43,228.029,456.043,684.03
"pro","ste",2,"672756","pro_ste_run2_672756","NP",5,3,"stroke",4000,0,696,1,2,252949,261736,262432,38520,15,214.429,223.216,223.912,28.429,256.429,484.43,228.029,456.043,684.03
"pro","ste",2,"672756","pro_ste_run2_672756","NP",3,2,"gold",1600,1,675,2,2,297336,306136,306811,38520,16,258.816,267.616,268.291,28.429,256.429,484.43,228.029,456.043,684.03
"pro","ste",2,"672756","pro_ste_run2_672756","NP",3,2,"sailor",2800,1,741,2,2,309349,318149,318890,38520,17,270.829,279.629,280.37,28.429,256.429,484.43,228.029,456.043,684.03
"pro","ste",2,"672756","pro_ste_run2_672756","NP",5,3,"thing",4000,1,673,2,2,322549,331349,332022,38520,18,284.029,292.829,293.502,28.429,256.429,484.43,228.029,456.043,684.03
"pro","ste",2,"672756","pro_ste_run2_672756","NN",5,2,"kids",4000,1,651,1,1,336936,345736,346387,38520,19,298.416,307.216,307.867,28.429,256.429,484.43,228.029,456.043,684.03
"pro","ste",2,"672756","pro_ste_run2_672756","RN",2,1,"onion",1600,0,0,NA,1,351349,360149,0,38520,20,312.829,321.629,-38.52,28.429,256.429,484.43,228.029,456.043,684.03
"pro","ste",2,"672756","pro_ste_run2_672756","NP",5,3,"grill",4000,1,921,2,2,363349,372149,373070,38520,21,324.829,333.629,334.55,28.429,256.429,484.43,228.029,456.043,684.03
"pro","ste",2,"672756","pro_ste_run2_672756","NN",4,1,"barber",2800,1,641,1,1,377736,386536,387177,38520,22,339.216,348.016,348.657,28.429,256.429,484.43,228.029,456.043,684.03
"pro","ste",2,"672756","pro_ste_run2_672756","NN",2,2,"flaw",2800,0,778,2,1,390949,399749,400527,38520,23,352.429,361.229,362.007,28.429,256.429,484.43,228.029,456.043,684.03
"pro","ste",2,"672756","pro_ste_run2_672756","NN",3,1,"grain",2800,1,686,1,1,404149,412949,413635,38520,24,365.629,374.429,375.115,28.429,256.429,484.43,228.029,456.043,684.03
"pro","ste",2,"672756","pro_ste_run2_672756","NP",2,2,"nerve",4000,1,778,2,2,417336,426136,426914,38520,25,378.816,387.616,388.394,28.429,256.429,484.43,228.029,456.043,684.03
"pro","ste",2,"672756","pro_ste_run2_672756","NP",5,3,"class",1600,1,871,2,2,431749,440549,441420,38520,26,393.229,402.029,402.9,28.429,256.429,484.43,228.029,456.043,684.03
"pro","ste",2,"672756","pro_ste_run2_672756","NN",2,2,"tally",2800,1,830,1,1,443749,452549,453379,38520,27,405.229,414.029,414.859,28.429,256.429,484.43,228.029,456.043,684.03
"pro","ste",2,"672756","pro_ste_run2_672756","NP",2,2,"photo",1600,1,407,2,2,456936,465736,466143,38520,28,418.416,427.216,427.623,28.429,256.429,484.43,228.029,456.043,684.03
"pro","ste",2,"672756","pro_ste_run2_672756","NN",5,2,"zebra",4000,1,605,1,1,468936,477749,478354,38520,29,430.416,439.229,439.834,28.429,256.429,484.43,228.029,456.043,684.03
"pro","ste",2,"672756","pro_ste_run2_672756","RN",5,1,"pupil",1600,1,721,1,1,483349,492149,492870,38520,30,444.829,453.629,454.35,28.429,256.429,484.43,228.029,456.043,684.03
"pro","ste",2,"672756","pro_ste_run2_672756","NN",2,1,"list",2800,1,604,1,1,525350,534150,534754,38520,31,486.83,495.63,496.234,28.429,256.429,484.43,228.029,456.043,684.03
"pro","ste",2,"672756","pro_ste_run2_672756","NP",3,1,"tissue",1600,1,951,2,2,538536,547336,548287,38520,32,500.016,508.816,509.767,28.429,256.429,484.43,228.029,456.043,684.03
"pro","ste",2,"672756","pro_ste_run2_672756","NP",2,3,"point",4000,1,795,2,2,550536,559350,560145,38520,33,512.016,520.83,521.625,28.429,256.429,484.43,228.029,456.043,684.03
"pro","ste",2,"672756","pro_ste_run2_672756","NN",5,2,"output",1600,1,601,1,1,564950,573750,574351,38520,34,526.43,535.23,535.831,28.429,256.429,484.43,228.029,456.043,684.03
"pro","ste",2,"672756","pro_ste_run2_672756","NP",5,3,"finger",4000,0,1531,1,2,576950,585736,587267,38520,35,538.43,547.216,548.747,28.429,256.429,484.43,228.029,456.043,684.03
"pro","ste",2,"672756","pro_ste_run2_672756","NP",2,3,"grace",1600,1,569,2,2,591336,600150,600719,38520,36,552.816,561.63,562.199,28.429,256.429,484.43,228.029,456.043,684.03
"pro","ste",2,"672756","pro_ste_run2_672756","NN",3,2,"filter",1600,1,499,1,1,603350,612150,612649,38520,37,564.83,573.63,574.129,28.429,256.429,484.43,228.029,456.043,684.03
"pro","ste",2,"672756","pro_ste_run2_672756","NP",5,3,"click",2800,1,1144,2,2,615350,624136,625280,38520,38,576.83,585.616,586.76,28.429,256.429,484.43,228.029,456.043,684.03
"pro","ste",2,"672756","pro_ste_run2_672756","NN",3,2,"cows",2800,1,603,1,1,628536,637350,637953,38520,39,590.016,598.83,599.433,28.429,256.429,484.43,228.029,456.043,684.03
"pro","ste",2,"672756","pro_ste_run2_672756","RN",5,1,"need",4000,1,999,1,1,641750,650550,651549,38520,40,603.23,612.03,613.029,28.429,256.429,484.43,228.029,456.043,684.03
"pro","ste",2,"672756","pro_ste_run2_672756","NP",5,3,"void",2800,1,811,2,2,656150,664936,665747,38520,41,617.63,626.416,627.227,28.429,256.429,484.43,228.029,456.043,684.03
"pro","ste",2,"672756","pro_ste_run2_672756","NP",2,3,"talent",4000,1,642,2,2,669336,678150,678792,38520,42,630.816,639.63,640.272,28.429,256.429,484.43,228.029,456.043,684.03
"pro","ste",2,"672756","pro_ste_run2_672756","NP",4,1,"clown",1600,1,736,2,2,683750,692550,693286,38520,43,645.23,654.03,654.766,28.429,256.429,484.43,228.029,456.043,684.03
"pro","ste",2,"672756","pro_ste_run2_672756","NN",5,2,"signal",4000,1,854,1,1,695750,704536,705390,38520,44,657.23,666.016,666.87,28.429,256.429,484.43,228.029,456.043,684.03
"pro","ste",2,"672756","pro_ste_run2_672756","NN",4,1,"grip",2800,1,628,1,1,710136,718950,719578,38520,45,671.616,680.43,681.058,28.429,256.429,484.43,228.029,456.043,684.03
"rea","ste",1,"672756","rea_ste_run1_672756","NP",8,2,"brow",1600,1,498,2,2,117510,126310,126808,86690,1,30.82,39.62,40.118,28.42,256.407,484.42,228.033,456.02,684.034
"rea","ste",1,"672756","rea_ste_run1_672756","RN",5,2,"jets",1600,1,894,1,1,129510,138296,139190,86690,2,42.82,51.606,52.5,28.42,256.407,484.42,228.033,456.02,684.034
"rea","ste",1,"672756","rea_ste_run1_672756","NP",5,3,"touch",2800,1,1910,2,2,141496,150310,152220,86690,3,54.806,63.62,65.53,28.42,256.407,484.42,228.033,456.02,684.034
"rea","ste",1,"672756","rea_ste_run1_672756","NP",5,3,"pound",4000,1,1322,2,2,154710,163510,164832,86690,4,68.02,76.82,78.142,28.42,256.407,484.42,228.033,456.02,684.034
"rea","ste",1,"672756","rea_ste_run1_672756","RN",7,1,"rivals",2800,0,1443,2,1,169110,177896,179339,86690,5,82.42,91.206,92.649,28.42,256.407,484.42,228.033,456.02,684.034
"rea","ste",1,"672756","rea_ste_run1_672756","NP",6,1,"name",1600,0,1398,1,2,182296,191110,192508,86690,6,95.606,104.42,105.818,28.42,256.407,484.42,228.033,456.02,684.034
"rea","ste",1,"672756","rea_ste_run1_672756","NP",7,2,"world",1600,1,933,2,2,194310,203110,204043,86690,7,107.62,116.42,117.353,28.42,256.407,484.42,228.033,456.02,684.034
"rea","ste",1,"672756","rea_ste_run1_672756","RN",8,2,"marker",4000,1,1167,1,1,206310,215096,216263,86690,8,119.62,128.406,129.573,28.42,256.407,484.42,228.033,456.02,684.034
"rea","ste",1,"672756","rea_ste_run1_672756","NP",5,3,"wife",4000,1,761,2,2,220696,229510,230271,86690,9,134.006,142.82,143.581,28.42,256.407,484.42,228.033,456.02,684.034
"rea","ste",1,"672756","rea_ste_run1_672756","RN",5,2,"paper",1600,1,873,1,1,235110,243910,244783,86690,10,148.42,157.22,158.093,28.42,256.407,484.42,228.033,456.02,684.034
"rea","ste",1,"672756","rea_ste_run1_672756","NN",5,1,"chin",2800,1,606,1,1,247110,255896,256502,86690,11,160.42,169.206,169.812,28.42,256.407,484.42,228.033,456.02,684.034
"rea","ste",1,"672756","rea_ste_run1_672756","NP",7,2,"grill",4000,0,1135,1,2,260296,269110,270245,86690,12,173.606,182.42,183.555,28.42,256.407,484.42,228.033,456.02,684.034
"rea","ste",1,"672756","rea_ste_run1_672756","RN",8,2,"rhyme",2800,1,940,1,1,274710,283510,284450,86690,13,188.02,196.82,197.76,28.42,256.407,484.42,228.033,456.02,684.034
"rea","ste",1,"672756","rea_ste_run1_672756","NP",8,2,"goods",4000,1,765,2,2,287910,296696,297461,86690,14,201.22,210.006,210.771,28.42,256.407,484.42,228.033,456.02,684.034
"rea","ste",1,"672756","rea_ste_run1_672756","RN",6,1,"reign",2800,1,1015,1,1,302297,311110,312125,86690,15,215.607,224.42,225.435,28.42,256.407,484.42,228.033,456.02,684.034
"rea","ste",1,"672756","rea_ste_run1_672756","NP",5,3,"harbor",1600,1,1568,2,2,345497,354310,355878,86690,16,258.807,267.62,269.188,28.42,256.407,484.42,228.033,456.02,684.034
"rea","ste",1,"672756","rea_ste_run1_672756","RN",7,1,"boat",1600,0,933,2,1,357510,366310,367243,86690,17,270.82,279.62,280.553,28.42,256.407,484.42,228.033,456.02,684.034
"rea","ste",1,"672756","rea_ste_run1_672756","RN",8,2,"hour",4000,0,796,2,1,369510,378297,379093,86690,18,282.82,291.607,292.403,28.42,256.407,484.42,228.033,456.02,684.034
"rea","ste",1,"672756","rea_ste_run1_672756","NP",8,3,"tongue",4000,0,816,1,2,383897,392710,393526,86690,19,297.207,306.02,306.836,28.42,256.407,484.42,228.033,456.02,684.034
"rea","ste",1,"672756","rea_ste_run1_672756","RN",6,1,"beam",2800,1,936,1,1,398310,407110,408046,86690,20,311.62,320.42,321.356,28.42,256.407,484.42,228.033,456.02,684.034
"rea","ste",1,"672756","rea_ste_run1_672756","NN",5,1,"ruler",4000,1,932,1,1,411510,420297,421229,86690,21,324.82,333.607,334.539,28.42,256.407,484.42,228.033,456.02,684.034
"rea","ste",1,"672756","rea_ste_run1_672756","NP",5,3,"dryer",4000,1,468,2,2,425897,434710,435178,86690,22,339.207,348.02,348.488,28.42,256.407,484.42,228.033,456.02,684.034
"rea","ste",1,"672756","rea_ste_run1_672756","RN",8,2,"jazz",2800,0,731,2,1,440310,449110,449841,86690,23,353.62,362.42,363.151,28.42,256.407,484.42,228.033,456.02,684.034
"rea","ste",1,"672756","rea_ste_run1_672756","RN",5,2,"blaze",2800,1,755,1,1,453510,462297,463052,86690,24,366.82,375.607,376.362,28.42,256.407,484.42,228.033,456.02,684.034
"rea","ste",1,"672756","rea_ste_run1_672756","NP",8,3,"visit",1600,0,1064,1,2,466697,475510,476574,86690,25,380.007,388.82,389.884,28.42,256.407,484.42,228.033,456.02,684.034
"rea","ste",1,"672756","rea_ste_run1_672756","RN",5,2,"ideals",2800,1,1069,1,1,478710,487510,488579,86690,26,392.02,400.82,401.889,28.42,256.407,484.42,228.033,456.02,684.034
"rea","ste",1,"672756","rea_ste_run1_672756","NP",5,3,"plate",1600,1,596,2,2,491910,500697,501293,86690,27,405.22,414.007,414.603,28.42,256.407,484.42,228.033,456.02,684.034
"rea","ste",1,"672756","rea_ste_run1_672756","NP",7,2,"spark",1600,0,826,1,2,503897,512710,513536,86690,28,417.207,426.02,426.846,28.42,256.407,484.42,228.033,456.02,684.034
"rea","ste",1,"672756","rea_ste_run1_672756","NP",8,3,"males",4000,1,530,2,2,515910,524710,525240,86690,29,429.22,438.02,438.55,28.42,256.407,484.42,228.033,456.02,684.034
"rea","ste",1,"672756","rea_ste_run1_672756","NP",7,2,"setup",2800,1,919,2,2,530310,539097,540016,86690,30,443.62,452.407,453.326,28.42,256.407,484.42,228.033,456.02,684.034
"rea","ste",1,"672756","rea_ste_run1_672756","NP",5,3,"answer",1600,1,922,2,2,573510,582297,583219,86690,31,486.82,495.607,496.529,28.42,256.407,484.42,228.033,456.02,684.034
"rea","ste",1,"672756","rea_ste_run1_672756","RN",5,2,"hawk",1600,0,1631,2,1,585497,594310,595941,86690,32,498.807,507.62,509.251,28.42,256.407,484.42,228.033,456.02,684.034
"rea","ste",1,"672756","rea_ste_run1_672756","NN",8,1,"train",4000,1,650,1,1,597510,606310,606960,86690,33,510.82,519.62,520.27,28.42,256.407,484.42,228.033,456.02,684.034
"rea","ste",1,"672756","rea_ste_run1_672756","RN",8,2,"poppy",1600,0,967,2,1,611910,620697,621664,86690,34,525.22,534.007,534.974,28.42,256.407,484.42,228.033,456.02,684.034
"rea","ste",1,"672756","rea_ste_run1_672756","RN",7,2,"wave",4000,0,795,2,1,623897,632697,633492,86690,35,537.207,546.007,546.802,28.42,256.407,484.42,228.033,456.02,684.034
"rea","ste",1,"672756","rea_ste_run1_672756","RN",8,2,"days",2800,0,586,2,1,638310,647110,647696,86690,36,551.62,560.42,561.006,28.42,256.407,484.42,228.033,456.02,684.034
"rea","ste",1,"672756","rea_ste_run1_672756","RN",7,2,"need",4000,1,915,1,1,651510,660297,661212,86690,37,564.82,573.607,574.522,28.42,256.407,484.42,228.033,456.02,684.034
"rea","ste",1,"672756","rea_ste_run1_672756","NP",5,3,"hose",2800,0,1204,1,2,665897,674710,675914,86690,38,579.207,588.02,589.224,28.42,256.407,484.42,228.033,456.02,684.034
"rea","ste",1,"672756","rea_ste_run1_672756","RN",5,2,"drip",2800,1,673,1,1,679110,687910,688583,86690,39,592.42,601.22,601.893,28.42,256.407,484.42,228.033,456.02,684.034
"rea","ste",1,"672756","rea_ste_run1_672756","NN",5,1,"finger",4000,1,695,1,1,692310,701097,701792,86690,40,605.62,614.407,615.102,28.42,256.407,484.42,228.033,456.02,684.034
"rea","ste",1,"672756","rea_ste_run1_672756","NP",8,2,"charge",1600,1,878,2,2,706697,715510,716388,86690,41,620.007,628.82,629.698,28.42,256.407,484.42,228.033,456.02,684.034
"rea","ste",1,"672756","rea_ste_run1_672756","NP",7,1,"drum",2800,1,972,2,2,718710,727510,728482,86690,42,632.02,640.82,641.792,28.42,256.407,484.42,228.033,456.02,684.034
"rea","ste",1,"672756","rea_ste_run1_672756","NP",5,3,"spell",1600,1,1141,2,2,731910,740697,741838,86690,43,645.22,654.007,655.148,28.42,256.407,484.42,228.033,456.02,684.034
"rea","ste",1,"672756","rea_ste_run1_672756","NP",6,1,"people",2800,1,667,2,2,743897,752697,753364,86690,44,657.207,666.007,666.674,28.42,256.407,484.42,228.033,456.02,684.034
"rea","ste",1,"672756","rea_ste_run1_672756","NP",8,2,"rattle",4000,1,824,2,2,757110,765910,766734,86690,45,670.42,679.22,680.044,28.42,256.407,484.42,228.033,456.02,684.034
"rea","ste",2,"672756","rea_ste_run2_672756","NN",5,1,"food",2800,1,766,1,1,70890,79690,80456,40033,1,30.857,39.657,40.423,28.457,256.444,484.458,228.058,456.044,684.058
"rea","ste",2,"672756","rea_ste_run2_672756","NP",8,2,"rider",4000,0,837,1,2,84090,92877,93714,40033,2,44.057,52.844,53.681,28.457,256.444,484.458,228.058,456.044,684.058
"rea","ste",2,"672756","rea_ste_run2_672756","RN",8,2,"slug",4000,1,705,1,1,98477,107290,107995,40033,3,58.444,67.257,67.962,28.457,256.444,484.458,228.058,456.044,684.058
"rea","ste",2,"672756","rea_ste_run2_672756","RN",8,2,"witch",2800,1,1237,1,1,112890,121690,122927,40033,4,72.857,81.657,82.894,28.457,256.444,484.458,228.058,456.044,684.058
"rea","ste",2,"672756","rea_ste_run2_672756","RN",5,2,"stain",1600,1,741,1,1,126090,134877,135618,40033,5,86.057,94.844,95.585,28.457,256.444,484.458,228.058,456.044,684.058
"rea","ste",2,"672756","rea_ste_run2_672756","NN",7,1,"herd",1600,1,1896,1,1,138077,146890,148786,40033,6,98.044,106.857,108.753,28.457,256.444,484.458,228.058,456.044,684.058
"rea","ste",2,"672756","rea_ste_run2_672756","NP",7,1,"flag",2800,1,865,2,2,150090,158890,159755,40033,7,110.057,118.857,119.722,28.457,256.444,484.458,228.058,456.044,684.058
"rea","ste",2,"672756","rea_ste_run2_672756","RN",6,1,"maid",2800,0,785,2,1,163290,172077,172862,40033,8,123.257,132.044,132.829,28.457,256.444,484.458,228.058,456.044,684.058
"rea","ste",2,"672756","rea_ste_run2_672756","NP",6,1,"wall",1600,0,766,1,2,176477,185277,186043,40033,9,136.444,145.244,146.01,28.457,256.444,484.458,228.058,456.044,684.058
"rea","ste",2,"672756","rea_ste_run2_672756","NP",5,3,"zipper",2800,1,768,2,2,188490,197290,198058,40033,10,148.457,157.257,158.025,28.457,256.444,484.458,228.058,456.044,684.058
"rea","ste",2,"672756","rea_ste_run2_672756","RN",5,2,"pair",4000,1,770,1,1,201690,210490,211260,40033,11,161.657,170.457,171.227,28.457,256.444,484.458,228.058,456.044,684.058
"rea","ste",2,"672756","rea_ste_run2_672756","NP",8,2,"tree",1600,1,912,2,2,216077,224877,225789,40033,12,176.044,184.844,185.756,28.457,256.444,484.458,228.058,456.044,684.058
"rea","ste",2,"672756","rea_ste_run2_672756","NP",5,3,"photo",4000,0,1011,1,2,228090,236890,237901,40033,13,188.057,196.857,197.868,28.457,256.444,484.458,228.058,456.044,684.058
"rea","ste",2,"672756","rea_ste_run2_672756","NP",5,3,"girl",1600,1,790,2,2,242491,251291,252081,40033,14,202.458,211.258,212.048,28.457,256.444,484.458,228.058,456.044,684.058
"rea","ste",2,"672756","rea_ste_run2_672756","RN",7,1,"quart",4000,0,817,2,1,254477,263277,264094,40033,15,214.444,223.244,224.061,28.457,256.444,484.458,228.058,456.044,684.058
"rea","ste",2,"672756","rea_ste_run2_672756","NN",8,1,"rest",1600,1,955,1,1,298877,307691,308646,40033,16,258.844,267.658,268.613,28.457,256.444,484.458,228.058,456.044,684.058
"rea","ste",2,"672756","rea_ste_run2_672756","NP",7,2,"singer",2800,1,917,2,2,310891,319691,320608,40033,17,270.858,279.658,280.575,28.457,256.444,484.458,228.058,456.044,684.058
"rea","ste",2,"672756","rea_ste_run2_672756","RN",8,2,"prince",1600,1,971,1,1,324091,332891,333862,40033,18,284.058,292.858,293.829,28.457,256.444,484.458,228.058,456.044,684.058
"rea","ste",2,"672756","rea_ste_run2_672756","NP",5,3,"pals",4000,1,762,2,2,336077,344877,345639,40033,19,296.044,304.844,305.606,28.457,256.444,484.458,228.058,456.044,684.058
"rea","ste",2,"672756","rea_ste_run2_672756","NP",5,3,"cotton",2800,1,801,2,2,350491,359291,360092,40033,20,310.458,319.258,320.059,28.457,256.444,484.458,228.058,456.044,684.058
"rea","ste",2,"672756","rea_ste_run2_672756","NP",5,3,"chest",4000,1,602,2,2,363691,372491,373093,40033,21,323.658,332.458,333.06,28.457,256.444,484.458,228.058,456.044,684.058
"rea","ste",2,"672756","rea_ste_run2_672756","NP",8,2,"dawn",4000,0,1310,1,2,378077,386877,388187,40033,22,338.044,346.844,348.154,28.457,256.444,484.458,228.058,456.044,684.058
"rea","ste",2,"672756","rea_ste_run2_672756","RN",5,2,"praise",1600,1,845,1,1,392491,401291,402136,40033,23,352.458,361.258,362.103,28.457,256.444,484.458,228.058,456.044,684.058
"rea","ste",2,"672756","rea_ste_run2_672756","RN",5,2,"walker",1600,1,727,1,1,404491,413291,414018,40033,24,364.458,373.258,373.985,28.457,256.444,484.458,228.058,456.044,684.058
"rea","ste",2,"672756","rea_ste_run2_672756","NN",5,1,"grass",2800,1,678,1,1,416477,425277,425955,40033,25,376.444,385.244,385.922,28.457,256.444,484.458,228.058,456.044,684.058
"rea","ste",2,"672756","rea_ste_run2_672756","NP",8,2,"charm",2800,1,995,2,2,429691,438491,439486,40033,26,389.658,398.458,399.453,28.457,256.444,484.458,228.058,456.044,684.058
"rea","ste",2,"672756","rea_ste_run2_672756","RN",8,2,"barber",4000,1,883,1,1,442891,451691,452574,40033,27,402.858,411.658,412.541,28.457,256.444,484.458,228.058,456.044,684.058
"rea","ste",2,"672756","rea_ste_run2_672756","RN",6,1,"motor",2800,1,860,1,1,457277,466077,466937,40033,28,417.244,426.044,426.904,28.457,256.444,484.458,228.058,456.044,684.058
"rea","ste",2,"672756","rea_ste_run2_672756","RN",7,1,"east",1600,1,1157,1,1,470491,479291,480448,40033,29,430.458,439.258,440.415,28.457,256.444,484.458,228.058,456.044,684.058
"rea","ste",2,"672756","rea_ste_run2_672756","NP",7,2,"oats",4000,1,937,2,2,482491,491291,492228,40033,30,442.458,451.258,452.195,28.457,256.444,484.458,228.058,456.044,684.058
"rea","ste",2,"672756","rea_ste_run2_672756","NP",8,3,"slip",4000,0,1559,1,2,526891,535691,537250,40033,31,486.858,495.658,497.217,28.457,256.444,484.458,228.058,456.044,684.058
"rea","ste",2,"672756","rea_ste_run2_672756","RN",7,2,"note",1600,0,942,2,1,541278,550078,551020,40033,32,501.245,510.045,510.987,28.457,256.444,484.458,228.058,456.044,684.058
"rea","ste",2,"672756","rea_ste_run2_672756","RN",5,2,"tile",2800,0,990,2,1,553291,562091,563081,40033,33,513.258,522.058,523.048,28.457,256.444,484.458,228.058,456.044,684.058
"rea","ste",2,"672756","rea_ste_run2_672756","NP",5,3,"winner",2800,1,804,2,2,566491,575291,576095,40033,34,526.458,535.258,536.062,28.457,256.444,484.458,228.058,456.044,684.058
"rea","ste",2,"672756","rea_ste_run2_672756","NN",5,1,"flick",1600,1,1044,1,1,579678,588478,589522,40033,35,539.645,548.445,549.489,28.457,256.444,484.458,228.058,456.044,684.058
"rea","ste",2,"672756","rea_ste_run2_672756","NP",8,3,"glove",4000,0,825,1,2,591691,600491,601316,40033,36,551.658,560.458,561.283,28.457,256.444,484.458,228.058,456.044,684.058
"rea","ste",2,"672756","rea_ste_run2_672756","RN",5,2,"list",1600,0,919,2,1,606091,614891,615810,40033,37,566.058,574.858,575.777,28.457,256.444,484.458,228.058,456.044,684.058
"rea","ste",2,"672756","rea_ste_run2_672756","NP",5,3,"beach",4000,1,955,2,2,618078,626878,627833,40033,38,578.045,586.845,587.8,28.457,256.444,484.458,228.058,456.044,684.058
"rea","ste",2,"672756","rea_ste_run2_672756","NP",5,3,"bugs",2800,1,821,2,2,632491,641291,642112,40033,39,592.458,601.258,602.079,28.457,256.444,484.458,228.058,456.044,684.058
"rea","ste",2,"672756","rea_ste_run2_672756","NP",7,1,"suit",4000,1,734,2,2,645691,654491,655225,40033,40,605.658,614.458,615.192,28.457,256.444,484.458,228.058,456.044,684.058
"rea","ste",2,"672756","rea_ste_run2_672756","RN",8,1,"dock",1600,1,692,1,1,660078,668878,669570,40033,41,620.045,628.845,629.537,28.457,256.444,484.458,228.058,456.044,684.058
"rea","ste",2,"672756","rea_ste_run2_672756","RN",6,1,"folder",4000,1,790,1,1,672091,680891,681681,40033,42,632.058,640.858,641.648,28.457,256.444,484.458,228.058,456.044,684.058
"rea","ste",2,"672756","rea_ste_run2_672756","NP",8,3,"owner",2800,1,495,2,2,686491,695291,695786,40033,43,646.458,655.258,655.753,28.457,256.444,484.458,228.058,456.044,684.058
"rea","ste",2,"672756","rea_ste_run2_672756","NP",6,1,"washer",1600,1,728,2,2,699678,708478,709206,40033,44,659.645,668.445,669.173,28.457,256.444,484.458,228.058,456.044,684.058
"rea","ste",2,"672756","rea_ste_run2_672756","RN",7,2,"void",2800,1,1341,1,1,711678,720491,721832,40033,45,671.645,680.458,681.799,28.457,256.444,484.458,228.058,456.044,684.058
"bas","ste",1,"DMCC3963378","bas_ste_run1_DMCC3963378","NP",5,3,"syrup",2800,1,814,2,2,119673,128473,129287,88823,1,30.85,39.65,40.464,28.45,256.451,484.451,228.064,456.064,684.064
"bas","ste",1,"DMCC3963378","bas_ste_run1_DMCC3963378","NN",8,2,"scale",1600,1,886,1,1,132860,141660,142546,88823,2,44.037,52.837,53.723,28.45,256.451,484.451,228.064,456.064,684.064
"bas","ste",1,"DMCC3963378","bas_ste_run1_DMCC3963378","NN",8,2,"doll",4000,1,809,1,1,144873,153673,154482,88823,3,56.05,64.85,65.659,28.45,256.451,484.451,228.064,456.064,684.064
"bas","ste",1,"DMCC3963378","bas_ste_run1_DMCC3963378","NP",5,3,"threat",4000,0,1583,1,2,159273,168073,169656,88823,4,70.45,79.25,80.833,28.45,256.451,484.451,228.064,456.064,684.064
"bas","ste",1,"DMCC3963378","bas_ste_run1_DMCC3963378","NN",6,1,"parrot",1600,1,623,1,1,173660,182460,183083,88823,5,84.837,93.637,94.26,28.45,256.451,484.451,228.064,456.064,684.064
"bas","ste",1,"DMCC3963378","bas_ste_run1_DMCC3963378","NP",8,2,"chance",2800,1,872,2,2,185673,194474,195346,88823,6,96.85,105.651,106.523,28.45,256.451,484.451,228.064,456.064,684.064
"bas","ste",1,"DMCC3963378","bas_ste_run1_DMCC3963378","NN",5,2,"blur",2800,1,709,1,1,198874,207674,208383,88823,7,110.051,118.851,119.56,28.45,256.451,484.451,228.064,456.064,684.064
"bas","ste",1,"DMCC3963378","bas_ste_run1_DMCC3963378","NP",7,2,"rash",4000,1,834,2,2,212060,220860,221694,88823,8,123.237,132.037,132.871,28.45,256.451,484.451,228.064,456.064,684.064
"bas","ste",1,"DMCC3963378","bas_ste_run1_DMCC3963378","NN",5,2,"tube",4000,1,930,1,1,226474,235274,236204,88823,9,137.651,146.451,147.381,28.45,256.451,484.451,228.064,456.064,684.064
"bas","ste",1,"DMCC3963378","bas_ste_run1_DMCC3963378","NP",5,3,"share",1600,1,817,2,2,240874,249674,250491,88823,10,152.051,160.851,161.668,28.45,256.451,484.451,228.064,456.064,684.064
"bas","ste",1,"DMCC3963378","bas_ste_run1_DMCC3963378","NP",7,2,"wealth",2800,1,827,2,2,252860,261660,262487,88823,11,164.037,172.837,173.664,28.45,256.451,484.451,228.064,456.064,684.064
"bas","ste",1,"DMCC3963378","bas_ste_run1_DMCC3963378","NP",8,2,"bush",1600,1,798,2,2,266074,274874,275672,88823,12,177.251,186.051,186.849,28.45,256.451,484.451,228.064,456.064,684.064
"bas","ste",1,"DMCC3963378","bas_ste_run1_DMCC3963378","NN",7,1,"straw",4000,1,828,1,1,278074,286874,287702,88823,13,189.251,198.051,198.879,28.45,256.451,484.451,228.064,456.064,684.064
"bas","ste",1,"DMCC3963378","bas_ste_run1_DMCC3963378","NP",6,1,"frost",2800,1,677,2,2,292460,301260,301937,88823,14,203.637,212.437,213.114,28.45,256.451,484.451,228.064,456.064,684.064
"bas","ste",1,"DMCC3963378","bas_ste_run1_DMCC3963378","RN",5,1,"quart",1600,1,909,1,1,305674,314474,315383,88823,15,216.851,225.651,226.56,28.45,256.451,484.451,228.064,456.064,684.064
"bas","ste",1,"DMCC3963378","bas_ste_run1_DMCC3963378","NN",6,1,"taxi",2800,1,698,1,1,347674,356474,357172,88823,16,258.851,267.651,268.349,28.45,256.451,484.451,228.064,456.064,684.064
"bas","ste",1,"DMCC3963378","bas_ste_run1_DMCC3963378","NN",8,2,"liar",4000,1,829,1,1,360874,369674,370503,88823,17,272.051,280.851,281.68,28.45,256.451,484.451,228.064,456.064,684.064
"bas","ste",1,"DMCC3963378","bas_ste_run1_DMCC3963378","NP",7,2,"need",4000,0,863,1,2,375260,384060,384923,88823,18,286.437,295.237,296.1,28.45,256.451,484.451,228.064,456.064,684.064
"bas","ste",1,"DMCC3963378","bas_ste_run1_DMCC3963378","NP",7,2,"bean",1600,1,704,2,2,389674,398474,399178,88823,19,300.851,309.651,310.355,28.45,256.451,484.451,228.064,456.064,684.064
"bas","ste",1,"DMCC3963378","bas_ste_run1_DMCC3963378","NP",8,3,"bees",1600,1,561,2,2,401674,410474,411035,88823,20,312.851,321.651,322.212,28.45,256.451,484.451,228.064,456.064,684.064
"bas","ste",1,"DMCC3963378","bas_ste_run1_DMCC3963378","NP",5,3,"visit",2800,0,1689,1,2,413660,422460,424149,88823,21,324.837,333.637,335.326,28.45,256.451,484.451,228.064,456.064,684.064
"bas","ste",1,"DMCC3963378","bas_ste_run1_DMCC3963378","NN",7,1,"logic",2800,1,708,1,1,426874,435674,436382,88823,22,338.051,346.851,347.559,28.45,256.451,484.451,228.064,456.064,684.064
"bas","ste",1,"DMCC3963378","bas_ste_run1_DMCC3963378","NP",5,3,"people",4000,1,607,2,2,440074,448874,449481,88823,23,351.251,360.051,360.658,28.45,256.451,484.451,228.064,456.064,684.064
"bas","ste",1,"DMCC3963378","bas_ste_run1_DMCC3963378","NN",8,2,"heater",2800,1,744,1,1,454460,463260,464004,88823,24,365.637,374.437,375.181,28.45,256.451,484.451,228.064,456.064,684.064
"bas","ste",1,"DMCC3963378","bas_ste_run1_DMCC3963378","RN",5,1,"noise",1600,1,717,1,1,467674,476474,477191,88823,25,378.851,387.651,388.368,28.45,256.451,484.451,228.064,456.064,684.064
