"session","task","run","subj","name","trial.type","load","numtrials","probe","iti","acc","rt","resp","cresp","time.cue.onset.abs","time.target.onset.abs","time.rt.abs","time.scan.start","trial.num","time.cue.onset","time.target.onset","time.rt","time.block1.on","time.block2.on","time.block3.on","time.block1.off","time.block2.off","time.block3.off"
"bas","ste",1,"115825","bas_ste_run1_115825","NP",5,3,"syrup",4000,1,1185,2,2,140321,149120,150305,109500,1,30.821,39.62,40.805,28.421,256.421,484.42,228.023,456.022,684.022
"bas","ste",1,"115825","bas_ste_run1_115825","NN",8,2,"scale",4000,1,816,1,1,154720,163519,164335,109500,2,45.22,54.019,54.835,28.421,256.421,484.42,228.023,456.022,684.022
"bas","ste",1,"115825","bas_ste_run1_115825","NN",8,2,"doll",1600,1,925,1,1,169119,177918,178843,109500,3,59.619,68.418,69.343,28.421,256.421,484.42,228.023,456.022,684.022
"bas","ste",1,"115825","bas_ste_run1_115825","NP",5,3,"threat",1600,0,0,NA,2,181118,189917,0,109500,4,71.618,80.417,-109.5,28.421,256.421,484.42,228.023,456.022,684.022
"bas","ste",1,"115825","bas_ste_run1_115825","NN",6,1,"parrot",2800,1,1323,1,1,193117,201916,203239,109500,5,83.617,92.416,93.739,28.421,256.421,484.42,228.023,456.022,684.022
"bas","ste",1,"115825","bas_ste_run1_115825","NP",8,2,"chance",4000,1,761,2,2,206316,215115,215876,109500,6,96.816,105.615,106.376,28.421,256.421,484.42,228.023,456.022,684.022
"bas","ste",1,"115825","bas_ste_run1_115825","NN",5,2,"blur",4000,1,842,1,1,220715,229514,230356,109500,7,111.215,120.014,120.856,28.421,256.421,484.42,228.023,456.022,684.022
"bas","ste",1,"115825","bas_ste_run1_115825","NP",7,2,"rash",2800,1,1072,2,2,235114,243913,244985,109500,8,125.614,134.413,135.485,28.421,256.421,484.42,228.023,456.022,684.022
"bas","ste",1,"115825","bas_ste_run1_115825","NN",5,2,"tube",1600,1,1090,1,1,248313,257112,258202,109500,9,138.813,147.612,148.702,28.421,256.421,484.42,228.023,456.022,684.022
"bas","ste",1,"115825","bas_ste_run1_115825","NP",5,3,"share",2800,0,0,NA,2,260312,269111,0,109500,10,150.812,159.611,-109.5,28.421,256.421,484.42,228.023,456.022,684.022
"bas","ste",1,"115825","bas_ste_run1_115825","NP",7,2,"wealth",2800,1,1024,2,2,273511,282310,283334,109500,11,164.011,172.81,173.834,28.421,256.421,484.42,228.023,456.022,684.022
"bas","ste",1,"115825","bas_ste_run1_115825","NP",8,2,"bush",1600,1,1137,2,2,286710,295509,296646,109500,12,177.21,186.009,187.146,28.421,256.421,484.42,228.023,456.022,684.022
"bas","ste",1,"115825","bas_ste_run1_115825","NN",7,1,"straw",4000,1,1163,1,1,298709,307508,308671,109500,13,189.209,198.008,199.171,28.421,256.421,484.42,228.023,456.022,684.022
"bas","ste",1,"115825","bas_ste_run1_115825","NP",6,1,"frost",1600,0,1038,1,2,313108,321907,322945,109500,14,203.608,212.407,213.445,28.421,256.421,484.42,228.023,456.022,684.022
"bas","ste",1,"115825","bas_ste_run1_115825","RN",5,1,"quart",2800,1,1116,1,1,325107,333906,335022,109500,15,215.607,224.406,225.522,28.421,256.421,484.42,228.023,456.022,684.022
"bas","ste",1,"115825","bas_ste_run1_115825","NN",6,1,"taxi",2800,1,1175,1,1,368320,377120,378295,109500,16,258.82,267.62,268.795,28.421,256.421,484.42,228.023,456.022,684.022
"bas","ste",1,"115825","bas_ste_run1_115825","NN",8,2,"liar",2800,1,968,1,1,381519,390319,391287,109500,17,272.019,280.819,281.787,28.421,256.421,484.42,228.023,456.022,684.022
"bas","ste",1,"115825","bas_ste_run1_115825","NP",7,2,"need",4000,0,1521,1,2,394718,403518,405039,109500,18,285.218,294.018,295.539,28.421,256.421,484.42,228.023,456.022,684.022
"bas","ste",1,"115825","bas_ste_run1_115825","NP",7,2,"bean",4000,1,1095,2,2,409117,417917,419012,109500,19,299.617,308.417,309.512,28.421,256.421,484.42,228.023,456.022,684.022
"bas","ste",1,"115825","bas_ste_run1_115825","NP",8,3,"bees",2800,1,914,2,2,423516,432316,433230,109500,20,314.016,322.816,323.73,28.421,256.421,484.42,228.023,456.022,684.022
"bas","ste",1,"115825","bas_ste_run1_115825","NP",5,3,"visit",4000,0,1546,1,2,436715,445515,447061,109500,21,327.215,336.015,337.561,28.421,256.421,484.42,228.023,456.022,684.022
"bas","ste",1,"115825","bas_ste_run1_115825","NN",7,1,"logic",2800,1,888,1,1,451114,459914,460802,109500,22,341.614,350.414,351.302,28.421,256.421,484.42,228.023,456.022,684.022
"bas","ste",1,"115825","bas_ste_run1_115825","NP",5,3,"people",1600,0,0,NA,2,464313,473113,0,109500,23,354.813,363.613,-109.5,28.421,256.421,484.42,228.023,456.022,684.022
"bas","ste",1,"115825","bas_ste_run1_115825","NN",8,2,"heater",4000,1,874,1,1,476312,485112,485986,109500,24,366.812,375.612,376.486,28.421,256.421,484.42,228.023,456.022,684.022
"bas","ste",1,"115825","bas_ste_run1_115825","RN",5,1,"noise",1600,1,1508,1,1,490711,499511,501019,109500,25,381.211,390.011,391.519,28.421,256.421,484.42,228.023,456.022,684.022
"bas","ste",1,"115825","bas_ste_run1_115825","NN",5,2,"pole",1600,0,746,2,1,502710,511510,512256,109500,26,393.21,402.01,402.756,28.421,256.421,484.42,228.023,456.022,684.022
"bas","ste",1,"115825","bas_ste_run1_115825","NP",8,3,"city",2800,1,935,2,2,514709,523509,524444,109500,27,405.209,414.009,414.944,28.421,256.421,484.42,228.023,456.022,684.022
"bas","ste",1,"115825","bas_ste_run1_115825","NP",8,3,"carpet",1600,1,769,2,2,527908,536708,537477,109500,28,418.408,427.208,427.977,28.421,256.421,484.42,228.023,456.022,684.022
"bas","ste",1,"115825","bas_ste_run1_115825","NP",5,3,"tags",4000,1,1021,2,2,539907,548707,549728,109500,29,430.407,439.207,440.228,28.421,256.421,484.42,228.023,456.022,684.022
"bas","ste",1,"115825","bas_ste_run1_115825","NN",5,2,"greed",1600,1,500,1,1,554306,563106,563606,109500,30,444.806,453.606,454.106,28.421,256.421,484.42,228.023,456.022,684.022
"bas","ste",1,"115825","bas_ste_run1_115825","NN",5,2,"pans",4000,1,706,1,1,596320,605119,605825,109500,31,486.82,495.619,496.325,28.421,256.421,484.42,228.023,456.022,684.022
"bas","ste",1,"115825","bas_ste_run1_115825","NP",5,3,"muscle",2800,1,1338,2,2,610719,619518,620856,109500,32,501.219,510.018,511.356,28.421,256.421,484.42,228.023,456.022,684.022
"bas","ste",1,"115825","bas_ste_run1_115825","NP",8,2,"bugs",2800,1,1066,2,2,623918,632717,633783,109500,33,514.418,523.217,524.283,28.421,256.421,484.42,228.023,456.022,684.022
"bas","ste",1,"115825","bas_ste_run1_115825","RN",5,1,"fusion",4000,1,1145,1,1,637117,645916,647061,109500,34,527.617,536.416,537.561,28.421,256.421,484.42,228.023,456.022,684.022
"bas","ste",1,"115825","bas_ste_run1_115825","NN",8,2,"shell",1600,1,920,1,1,651516,660315,661235,109500,35,542.016,550.815,551.735,28.421,256.421,484.42,228.023,456.022,684.022
"bas","ste",1,"115825","bas_ste_run1_115825","NP",7,1,"clue",1600,1,860,2,2,663515,672314,673174,109500,36,554.015,562.814,563.674,28.421,256.421,484.42,228.023,456.022,684.022
"bas","ste",1,"115825","bas_ste_run1_115825","NP",8,2,"wife",1600,1,909,2,2,675514,684313,685222,109500,37,566.014,574.813,575.722,28.421,256.421,484.42,228.023,456.022,684.022
"bas","ste",1,"115825","bas_ste_run1_115825","NN",5,2,"gift",4000,0,1328,2,1,687513,696312,697640,109500,38,578.013,586.812,588.14,28.421,256.421,484.42,228.023,456.022,684.022
"bas","ste",1,"115825","bas_ste_run1_115825","NP",6,1,"food",4000,1,591,2,2,701912,710711,711302,109500,39,592.412,601.211,601.802,28.421,256.421,484.42,228.023,456.022,684.022
"bas","ste",1,"115825","bas_ste_run1_115825","RN",8,1,"ground",2800,1,1134,1,1,716311,725110,726244,109500,40,606.811,615.61,616.744,28.421,256.421,484.42,228.023,456.022,684.022
"bas","ste",1,"115825","bas_ste_run1_115825","NP",5,3,"marker",1600,1,864,2,2,729510,738309,739173,109500,41,620.01,628.809,629.673,28.421,256.421,484.42,228.023,456.022,684.022
"bas","ste",1,"115825","bas_ste_run1_115825","NN",8,2,"signal",2800,1,815,1,1,741509,750308,751123,109500,42,632.009,640.808,641.623,28.421,256.421,484.42,228.023,456.022,684.022
"bas","ste",1,"115825","bas_ste_run1_115825","NP",5,3,"curve",1600,1,895,2,2,754708,763507,764402,109500,43,645.208,654.007,654.902,28.421,256.421,484.42,228.023,456.022,684.022
"bas","ste",1,"115825","bas_ste_run1_115825","NN",7,2,"pledge",4000,1,667,1,1,766707,775506,776173,109500,44,657.207,666.006,666.673,28.421,256.421,484.42,228.023,456.022,684.022
"bas","ste",1,"115825","bas_ste_run1_115825","NN",7,2,"berry",2800,1,960,1,1,781106,789922,790882,109500,45,671.606,680.422,681.382,28.421,256.421,484.42,228.023,456.022,684.022
"bas","ste",2,"115825","bas_ste_run2_115825","NP",5,3,"north",1600,1,1197,2,2,76759,85558,86755,45945,1,30.814,39.613,40.81,28.414,256.413,484.413,228.016,456.015,684.014
"bas","ste",2,"115825","bas_ste_run2_115825","NP",5,3,"ransom",2800,1,685,2,2,88758,97557,98242,45945,2,42.813,51.612,52.297,28.414,256.413,484.413,228.016,456.015,684.014
"bas","ste",2,"115825","bas_ste_run2_115825","NN",5,2,"chin",4000,1,787,1,1,101957,110756,111543,45945,3,56.012,64.811,65.598,28.414,256.413,484.413,228.016,456.015,684.014
"bas","ste",2,"115825","bas_ste_run2_115825","NN",6,1,"whale",4000,1,682,1,1,116356,125155,125837,45945,4,70.411,79.21,79.892,28.414,256.413,484.413,228.016,456.015,684.014
"bas","ste",2,"115825","bas_ste_run2_115825","NN",8,2,"cotton",2800,1,764,1,1,130755,139554,140318,45945,5,84.81,93.609,94.373,28.414,256.413,484.413,228.016,456.015,684.014
"bas","ste",2,"115825","bas_ste_run2_115825","NP",5,3,"wheel",2800,1,880,2,2,143954,152753,153633,45945,6,98.009,106.808,107.688,28.414,256.413,484.413,228.016,456.015,684.014
"bas","ste",2,"115825","bas_ste_run2_115825","RN",5,1,"cabin",4000,0,743,2,1,157153,165952,166695,45945,7,111.208,120.007,120.75,28.414,256.413,484.413,228.016,456.015,684.014
"bas","ste",2,"115825","bas_ste_run2_115825","NN",5,2,"hatch",1600,1,844,1,1,171552,180351,181195,45945,8,125.607,134.406,135.25,28.414,256.413,484.413,228.016,456.015,684.014
"bas","ste",2,"115825","bas_ste_run2_115825","NN",7,1,"flame",2800,1,955,1,1,183551,192350,193305,45945,9,137.606,146.405,147.36,28.414,256.413,484.413,228.016,456.015,684.014
"bas","ste",2,"115825","bas_ste_run2_115825","NP",6,1,"dollar",2800,1,985,2,2,196750,205549,206534,45945,10,150.805,159.604,160.589,28.414,256.413,484.413,228.016,456.015,684.014
"bas","ste",2,"115825","bas_ste_run2_115825","NP",8,2,"exam",4000,0,1049,1,2,209949,218748,219797,45945,11,164.004,172.803,173.852,28.414,256.413,484.413,228.016,456.015,684.014
"bas","ste",2,"115825","bas_ste_run2_115825","NN",8,2,"lesson",1600,1,1149,1,1,224348,233147,234296,45945,12,178.403,187.202,188.351,28.414,256.413,484.413,228.016,456.015,684.014
"bas","ste",2,"115825","bas_ste_run2_115825","NP",7,1,"teeth",4000,1,811,2,2,236347,245146,245957,45945,13,190.402,199.201,200.012,28.414,256.413,484.413,228.016,456.015,684.014
"bas","ste",2,"115825","bas_ste_run2_115825","NP",8,2,"kids",1600,1,1134,2,2,250746,259562,260696,45945,14,204.801,213.617,214.751,28.414,256.413,484.413,228.016,456.015,684.014
"bas","ste",2,"115825","bas_ste_run2_115825","RN",7,1,"jars",1600,0,1113,2,1,262761,271561,272674,45945,15,216.816,225.616,226.729,28.414,256.413,484.413,228.016,456.015,684.014
"bas","ste",2,"115825","bas_ste_run2_115825","NP",5,3,"harp",1600,1,786,2,2,304758,313558,314344,45945,16,258.813,267.613,268.399,28.414,256.413,484.413,228.016,456.015,684.014
"bas","ste",2,"115825","bas_ste_run2_115825","NN",8,2,"sled",1600,0,1092,2,1,316757,325557,326649,45945,17,270.812,279.612,280.704,28.414,256.413,484.413,228.016,456.015,684.014
"bas","ste",2,"115825","bas_ste_run2_115825","RN",8,1,"house",2800,1,715,1,1,328756,337556,338271,45945,18,282.811,291.611,292.326,28.414,256.413,484.413,228.016,456.015,684.014
"bas","ste",2,"115825","bas_ste_run2_115825","NP",5,3,"store",1600,1,844,2,2,341955,350755,351599,45945,19,296.01,304.81,305.654,28.414,256.413,484.413,228.016,456.015,684.014
"bas","ste",2,"115825","bas_ste_run2_115825","RN",5,1,"soil",4000,0,828,2,1,353955,362754,363582,45945,20,308.01,316.809,317.637,28.414,256.413,484.413,228.016,456.015,684.014
"bas","ste",2,"115825","bas_ste_run2_115825","NN",6,1,"zebra",4000,1,784,1,1,368353,377153,377937,45945,21,322.408,331.208,331.992,28.414,256.413,484.413,228.016,456.015,684.014
"bas","ste",2,"115825","bas_ste_run2_115825","NP",8,2,"action",1600,0,0,NA,2,382752,391552,0,45945,22,336.807,345.607,-45.945,28.414,256.413,484.413,228.016,456.015,684.014
"bas","ste",2,"115825","bas_ste_run2_115825","NN",7,1,"poison",2800,1,1114,1,1,394751,403551,404665,45945,23,348.806,357.606,358.72,28.414,256.413,484.413,228.016,456.015,684.014
"bas","ste",2,"115825","bas_ste_run2_115825","NN",5,2,"heaven",4000,1,700,1,1,407950,416750,417450,45945,24,362.005,370.805,371.505,28.414,256.413,484.413,228.016,456.015,684.014
"bas","ste",2,"115825","bas_ste_run2_115825","NP",8,2,"text",4000,0,0,NA,2,422349,431149,0,45945,25,376.404,385.204,-45.945,28.414,256.413,484.413,228.016,456.015,684.014
"bas","ste",2,"115825","bas_ste_run2_115825","NP",5,3,"others",2800,1,893,2,2,436748,445548,446441,45945,26,390.803,399.603,400.496,28.414,256.413,484.413,228.016,456.015,684.014
"bas","ste",2,"115825","bas_ste_run2_115825","NP",7,2,"crime",4000,1,1039,2,2,449947,458747,459786,45945,27,404.002,412.802,413.841,28.414,256.413,484.413,228.016,456.015,684.014
"bas","ste",2,"115825","bas_ste_run2_115825","NN",5,2,"barber",2800,0,0,NA,1,464346,473162,0,45945,28,418.401,427.217,-45.945,28.414,256.413,484.413,228.016,456.015,684.014
"bas","ste",2,"115825","bas_ste_run2_115825","NN",8,2,"steel",2800,1,980,1,1,477562,486361,487341,45945,29,431.617,440.416,441.396,28.414,256.413,484.413,228.016,456.015,684.014
"bas","ste",2,"115825","bas_ste_run2_115825","NP",7,2,"cherry",1600,1,595,2,2,490761,499560,500155,45945,30,444.816,453.615,454.21,28.414,256.413,484.413,228.016,456.015,684.014
"bas","ste",2,"115825","bas_ste_run2_115825","NN",7,2,"book",1600,1,758,1,1,532758,541557,542315,45945,31,486.813,495.612,496.37,28.414,256.413,484.413,228.016,456.015,684.014
"bas","ste",2,"115825","bas_ste_run2_115825","NP",7,1,"photo",4000,0,801,1,2,544757,553556,554357,45945,32,498.812,507.611,508.412,28.414,256.413,484.413,228.016,456.015,684.014
"bas","ste",2,"115825","bas_ste_run2_115825","NP",6,1,"profit",1600,1,983,2,2,559156,567955,568938,45945,33,513.211,522.01,522.993,28.414,256.413,484.413,228.016,456.015,684.014
"bas","ste",2,"115825","bas_ste_run2_115825","NN",7,2,"word",1600,1,785,1,1,571155,579954,580739,45945,34,525.21,534.009,534.794,28.414,256.413,484.413,228.016,456.015,684.014
"bas","ste",2,"115825","bas_ste_run2_115825","NP",8,3,"paper",2800,1,864,2,2,583154,591953,592817,45945,35,537.209,546.008,546.872,28.414,256.413,484.413,228.016,456.015,684.014
"bas","ste",2,"115825","bas_ste_run2_115825","NP",8,3,"pony",2800,0,0,NA,2,596353,605152,0,45945,36,550.408,559.207,-45.945,28.414,256.413,484.413,228.016,456.015,684.014
"bas","ste",2,"115825","bas_ste_run2_115825","NP",5,3,"fluid",4000,0,0,NA,2,609552,618351,0,45945,37,563.607,572.406,-45.945,28.414,256.413,484.413,228.016,456.015,684.014
"bas","ste",2,"115825","bas_ste_run2_115825","NN",8,1,"church",2800,1,642,1,1,623951,632750,633392,45945,38,578.006,586.805,587.447,28.414,256.413,484.413,228.016,456.015,684.014
"bas","ste",2,"115825","bas_ste_run2_115825","NN",5,2,"story",2800,1,761,1,1,637150,645949,646710,45945,39,591.205,600.004,600.765,28.414,256.413,484.413,228.016,456.015,684.014
"bas","ste",2,"115825","bas_ste_run2_115825","NP",5,3,"yard",4000,1,1105,2,2,650349,659148,660253,45945,40,604.404,613.203,614.308,28.414,256.413,484.413,228.016,456.015,684.014
"bas","ste",2,"115825","bas_ste_run2_115825","RN",5,1,"owner",1600,0,0,NA,1,664748,673547,0,45945,41,618.803,627.602,-45.945,28.414,256.413,484.413,228.016,456.015,684.014
"bas","ste",2,"115825","bas_ste_run2_115825","NP",5,3,"honey",4000,1,524,2,2,676747,685546,686070,45945,42,630.802,639.601,640.125,28.414,256.413,484.413,228.016,456.015,684.014
"bas","ste",2,"115825","bas_ste_run2_115825","NN",6,1,"cows",1600,1,1002,1,1,691146,699962,700964,45945,43,645.201,654.017,655.019,28.414,256.413,484.413,228.016,456.015,684.014
"bas","ste",2,"115825","bas_ste_run2_115825","NP",8,3,"pilot",2800,1,752,2,2,703161,711961,712713,45945,44,657.216,666.016,666.768,28.414,256.413,484.413,228.016,456.015,684.014
"bas","ste",2,"115825","bas_ste_run2_115825","NN",5,2,"train",4000,1,1172,1,1,716360,725160,726332,45945,45,670.415,679.215,680.387,28.414,256.413,484.413,228.016,456.015,684.014
"pro","ste",1,"115825","pro_ste_run1_115825","NN",2,2,"vision",2800,1,866,1,1,135081,143880,144746,104261,1,30.82,39.619,40.485,28.42,256.416,484.412,228.035,456.031,684.028
"pro","ste",1,"115825","pro_ste_run1_115825","NP",5,3,"park",4000,1,1269,2,2,148280,157079,158348,104261,2,44.019,52.818,54.087,28.42,256.416,484.412,228.035,456.031,684.028
"pro","ste",1,"115825","pro_ste_run1_115825","NN",4,1,"idea",1600,1,709,1,1,162678,171478,172187,104261,3,58.417,67.217,67.926,28.42,256.416,484.412,228.035,456.031,684.028
"pro","ste",1,"115825","pro_ste_run1_115825","NP",5,3,"boiler",4000,1,871,2,2,174677,183476,184347,104261,4,70.416,79.215,80.086,28.42,256.416,484.412,228.035,456.031,684.028
"pro","ste",1,"115825","pro_ste_run1_115825","NP",3,2,"ranch",1600,1,684,2,2,189076,197875,198559,104261,5,84.815,93.614,94.298,28.42,256.416,484.412,228.035,456.031,684.028
"pro","ste",1,"115825","pro_ste_run1_115825","NN",5,2,"deed",4000,1,638,1,1,201075,209874,210512,104261,6,96.814,105.613,106.251,28.42,256.416,484.412,228.035,456.031,684.028
"pro","ste",1,"115825","pro_ste_run1_115825","NN",2,2,"access",2800,1,1112,1,1,215474,224273,225385,104261,7,111.213,120.012,121.124,28.42,256.416,484.412,228.035,456.031,684.028
"pro","ste",1,"115825","pro_ste_run1_115825","NP",4,1,"ways",4000,1,836,2,2,228672,237472,238308,104261,8,124.411,133.211,134.047,28.42,256.416,484.412,228.035,456.031,684.028
"pro","ste",1,"115825","pro_ste_run1_115825","RN",5,1,"keeper",2800,0,737,2,1,243071,251870,252607,104261,9,138.81,147.609,148.346,28.42,256.416,484.412,228.035,456.031,684.028
"pro","ste",1,"115825","pro_ste_run1_115825","NN",5,2,"item",4000,1,1085,1,1,256270,265086,266171,104261,10,152.009,160.825,161.91,28.42,256.416,484.412,228.035,456.031,684.028
"pro","ste",1,"115825","pro_ste_run1_115825","NN",3,1,"hope",1600,1,782,1,1,270685,279484,280266,104261,11,166.424,175.223,176.005,28.42,256.416,484.412,228.035,456.031,684.028
"pro","ste",1,"115825","pro_ste_run1_115825","NP",5,3,"parent",2800,1,641,2,2,282684,291483,292124,104261,12,178.423,187.222,187.863,28.42,256.416,484.412,228.035,456.031,684.028
"pro","ste",1,"115825","pro_ste_run1_115825","NP",2,2,"dryer",1600,1,861,2,2,295883,304682,305543,104261,13,191.622,200.421,201.282,28.42,256.416,484.412,228.035,456.031,684.028
"pro","ste",1,"115825","pro_ste_run1_115825","NP",2,2,"suit",1600,1,676,2,2,307882,316681,317357,104261,14,203.621,212.42,213.096,28.42,256.416,484.412,228.035,456.031,684.028
"pro","ste",1,"115825","pro_ste_run1_115825","NP",3,2,"nail",2800,1,734,2,2,319881,328680,329414,104261,15,215.62,224.419,225.153,28.42,256.416,484.412,228.035,456.031,684.028
"pro","ste",1,"115825","pro_ste_run1_115825","NP",5,3,"menu",4000,1,716,2,2,363077,371876,372592,104261,16,258.816,267.615,268.331,28.42,256.416,484.412,228.035,456.031,684.028
"pro","ste",1,"115825","pro_ste_run1_115825","NN",5,2,"rage",4000,1,939,1,1,377476,386275,387214,104261,17,273.215,282.014,282.953,28.42,256.416,484.412,228.035,456.031,684.028
"pro","ste",1,"115825","pro_ste_run1_115825","NN",2,2,"laser",2800,1,742,1,1,391874,400674,401416,104261,18,287.613,296.413,297.155,28.42,256.416,484.412,228.035,456.031,684.028
"pro","ste",1,"115825","pro_ste_run1_115825","NP",2,3,"wool",2800,1,605,2,2,405073,413872,414477,104261,19,300.812,309.611,310.216,28.42,256.416,484.412,228.035,456.031,684.028
"pro","ste",1,"115825","pro_ste_run1_115825","NP",5,3,"color",4000,1,1289,2,2,418272,427071,428360,104261,20,314.011,322.81,324.099,28.42,256.416,484.412,228.035,456.031,684.028
"pro","ste",1,"115825","pro_ste_run1_115825","NP",3,2,"saint",4000,0,964,1,2,432671,441470,442434,104261,21,328.41,337.209,338.173,28.42,256.416,484.412,228.035,456.031,684.028
"pro","ste",1,"115825","pro_ste_run1_115825","NN",4,1,"critic",2800,1,801,1,1,447086,455885,456686,104261,22,342.825,351.624,352.425,28.42,256.416,484.412,228.035,456.031,684.028
"pro","ste",1,"115825","pro_ste_run1_115825","NN",5,2,"roses",1600,1,676,1,1,460285,469084,469760,104261,23,356.024,364.823,365.499,28.42,256.416,484.412,228.035,456.031,684.028
"pro","ste",1,"115825","pro_ste_run1_115825","NN",3,1,"rumor",1600,1,1548,1,1,472284,481083,482631,104261,24,368.023,376.822,378.37,28.42,256.416,484.412,228.035,456.031,684.028
"pro","ste",1,"115825","pro_ste_run1_115825","NP",3,2,"heel",2800,1,583,2,2,484283,493082,493665,104261,25,380.022,388.821,389.404,28.42,256.416,484.412,228.035,456.031,684.028
"pro","ste",1,"115825","pro_ste_run1_115825","RN",5,1,"shell",1600,0,650,2,1,497481,506281,506931,104261,26,393.22,402.02,402.67,28.42,256.416,484.412,228.035,456.031,684.028
"pro","ste",1,"115825","pro_ste_run1_115825","NP",5,3,"review",1600,1,876,2,2,509480,518280,519156,104261,27,405.219,414.019,414.895,28.42,256.416,484.412,228.035,456.031,684.028
"pro","ste",1,"115825","pro_ste_run1_115825","NN",2,2,"rash",1600,0,952,2,1,521479,530279,531231,104261,28,417.218,426.018,426.97,28.42,256.416,484.412,228.035,456.031,684.028
"pro","ste",1,"115825","pro_ste_run1_115825","NP",2,3,"chip",2800,1,477,2,2,533478,542277,542754,104261,29,429.217,438.016,438.493,28.42,256.416,484.412,228.035,456.031,684.028
"pro","ste",1,"115825","pro_ste_run1_115825","NP",2,3,"parade",4000,1,610,2,2,546677,555476,556086,104261,30,442.416,451.215,451.825,28.42,256.416,484.412,228.035,456.031,684.028
"pro","ste",1,"115825","pro_ste_run1_115825","NP",4,1,"verse",4000,1,789,2,2,591073,599872,600661,104261,31,486.812,495.611,496.4,28.42,256.416,484.412,228.035,456.031,684.028
"pro","ste",1,"115825","pro_ste_run1_115825","NN",3,2,"torch",1600,0,1141,2,1,605472,614271,615412,104261,32,501.211,510.01,511.151,28.42,256.416,484.412,228.035,456.031,684.028
"pro","ste",1,"115825","pro_ste_run1_115825","NN",5,2,"deal",1600,1,586,1,1,617471,626270,626856,104261,33,513.21,522.009,522.595,28.42,256.416,484.412,228.035,456.031,684.028
"pro","ste",1,"115825","pro_ste_run1_115825","NP",5,3,"clay",4000,1,532,2,2,629470,638285,638817,104261,34,525.209,534.024,534.556,28.42,256.416,484.412,228.035,456.031,684.028
"pro","ste",1,"115825","pro_ste_run1_115825","NP",5,3,"forest",1600,1,873,2,2,643885,652684,653557,104261,35,539.624,548.423,549.296,28.42,256.416,484.412,228.035,456.031,684.028
"pro","ste",1,"115825","pro_ste_run1_115825","NP",3,1,"charge",2800,1,786,2,2,655884,664683,665469,104261,36,551.623,560.422,561.208,28.42,256.416,484.412,228.035,456.031,684.028
"pro","ste",1,"115825","pro_ste_run1_115825","NN",2,2,"moose",4000,1,839,1,1,669083,677882,678721,104261,37,564.822,573.621,574.46,28.42,256.416,484.412,228.035,456.031,684.028
"pro","ste",1,"115825","pro_ste_run1_115825","RN",5,1,"chest",2800,0,1118,2,1,683481,692281,693399,104261,38,579.22,588.02,589.138,28.42,256.416,484.412,228.035,456.031,684.028
"pro","ste",1,"115825","pro_ste_run1_115825","NP",2,2,"paste",2800,1,825,2,2,696680,705479,706304,104261,39,592.419,601.218,602.043,28.42,256.416,484.412,228.035,456.031,684.028
"pro","ste",1,"115825","pro_ste_run1_115825","NN",3,2,"donor",2800,1,1065,1,1,709879,718678,719743,104261,40,605.618,614.417,615.482,28.42,256.416,484.412,228.035,456.031,684.028
"pro","ste",1,"115825","pro_ste_run1_115825","NP",5,3,"advice",1600,1,705,2,2,723078,731877,732582,104261,41,618.817,627.616,628.321,28.42,256.416,484.412,228.035,456.031,684.028
"pro","ste",1,"115825","pro_ste_run1_115825","NN",2,2,"work",4000,1,850,1,1,735077,743876,744726,104261,42,630.816,639.615,640.465,28.42,256.416,484.412,228.035,456.031,684.028
"pro","ste",1,"115825","pro_ste_run1_115825","RN",2,1,"bags",4000,1,778,1,1,749475,758275,759053,104261,43,645.214,654.014,654.792,28.42,256.416,484.412,228.035,456.031,684.028
"pro","ste",1,"115825","pro_ste_run1_115825","NN",5,2,"group",1600,1,860,1,1,763874,772673,773533,104261,44,659.613,668.412,669.272,28.42,256.416,484.412,228.035,456.031,684.028
"pro","ste",1,"115825","pro_ste_run1_115825","NP",2,2,"guys",2800,1,895,2,2,775873,784672,785567,104261,45,671.612,680.411,681.306,28.42,256.416,484.412,228.035,456.031,684.028
"pro","ste",2,"115825","pro_ste_run2_115825","NN",4,1,"campus",2800,0,836,2,1,68662,77461,78297,37844,1,30.818,39.617,40.453,28.418,256.414,484.41,228.017,456.03,684.026
"pro","ste",2,"115825","pro_ste_run2_115825","NP",5,3,"snap",2800,1,1082,2,2,81861,90660,91742,37844,2,44.017,52.816,53.898,28.418,256.414,484.41,228.017,456.03,684.026
"pro","ste",2,"115825","pro_ste_run2_115825","NP",4,1,"belief",4000,1,661,2,2,95059,103859,104520,37844,3,57.215,66.015,66.676,28.418,256.414,484.41,228.017,456.03,684.026
"pro","ste",2,"115825","pro_ste_run2_115825","NP",3,1,"drip",2800,1,763,2,2,109458,118257,119020,37844,4,71.614,80.413,81.176,28.418,256.414,484.41,228.017,456.03,684.026
"pro","ste",2,"115825","pro_ste_run2_115825","NP",2,2,"bottle",4000,0,1288,1,2,122657,131456,132744,37844,5,84.813,93.612,94.9,28.418,256.414,484.41,228.017,456.03,684.026
"pro","ste",2,"115825","pro_ste_run2_115825","RN",5,1,"level",1600,1,765,1,1,137056,145855,146620,37844,6,99.212,108.011,108.776,28.418,256.414,484.41,228.017,456.03,684.026
"pro","ste",2,"115825","pro_ste_run2_115825","NN",2,2,"spice",2800,1,925,1,1,149055,157854,158779,37844,7,111.211,120.01,120.935,28.418,256.414,484.41,228.017,456.03,684.026
"pro","ste",2,"115825","pro_ste_run2_115825","NN",2,2,"coal",4000,1,596,1,1,162253,171053,171649,37844,8,124.409,133.209,133.805,28.418,256.414,484.41,228.017,456.03,684.026
"pro","ste",2,"115825","pro_ste_run2_115825","NN",3,1,"film",1600,1,612,1,1,176652,185451,186063,37844,9,138.808,147.607,148.219,28.418,256.414,484.41,228.017,456.03,684.026
"pro","ste",2,"115825","pro_ste_run2_115825","RN",3,1,"singer",1600,0,1282,2,1,188651,197467,198749,37844,10,150.807,159.623,160.905,28.418,256.414,484.41,228.017,456.03,684.026
"pro","ste",2,"115825","pro_ste_run2_115825","NN",5,2,"herd",4000,1,1069,1,1,200667,209466,210535,37844,11,162.823,171.622,172.691,28.418,256.414,484.41,228.017,456.03,684.026
"pro","ste",2,"115825","pro_ste_run2_115825","NP",5,3,"flight",1600,1,1654,2,2,215065,223865,225519,37844,12,177.221,186.021,187.675,28.418,256.414,484.41,228.017,456.03,684.026
"pro","ste",2,"115825","pro_ste_run2_115825","NP",2,2,"quote",4000,1,607,2,2,227064,235863,236470,37844,13,189.22,198.019,198.626,28.418,256.414,484.41,228.017,456.03,684.026
"pro","ste",2,"115825","pro_ste_run2_115825","NN",5,2,"fury",2800,0,1760,2,1,241463,250262,252022,37844,14,203.619,212.418,214.178,28.418,256.414,484.41,228.017,456.03,684.026
"pro","ste",2,"115825","pro_ste_run2_115825","NP",5,3,"stroke",1600,1,548,2,2,254662,263461,264009,37844,15,216.818,225.617,226.165,28.418,256.414,484.41,228.017,456.03,684.026
"pro","ste",2,"115825","pro_ste_run2_115825","NP",3,2,"gold",1600,1,597,2,2,296658,305457,306054,37844,16,258.814,267.613,268.21,28.418,256.414,484.41,228.017,456.03,684.026
"pro","ste",2,"115825","pro_ste_run2_115825","NP",3,2,"sailor",4000,1,671,2,2,308657,317456,318127,37844,17,270.813,279.612,280.283,28.418,256.414,484.41,228.017,456.03,684.026
"pro","ste",2,"115825","pro_ste_run2_115825","NP",5,3,"thing",4000,0,1883,1,2,323056,331855,333738,37844,18,285.212,294.011,295.894,28.418,256.414,484.41,228.017,456.03,684.026
"pro","ste",2,"115825","pro_ste_run2_115825","NN",5,2,"kids",4000,1,610,1,1,337454,346253,346863,37844,19,299.61,308.409,309.019,28.418,256.414,484.41,228.017,456.03,684.026
"pro","ste",2,"115825","pro_ste_run2_115825","RN",2,1,"onion",2800,1,1057,1,1,351853,360652,361709,37844,20,314.009,322.808,323.865,28.418,256.414,484.41,228.017,456.03,684.026
"pro","ste",2,"115825","pro_ste_run2_115825","NP",5,3,"grill",1600,1,1171,2,2,365052,373851,375022,37844,21,327.208,336.007,337.178,28.418,256.414,484.41,228.017,456.03,684.026
"pro","ste",2,"115825","pro_ste_run2_115825","NN",4,1,"barber",1600,1,737,1,1,377051,385867,386604,37844,22,339.207,348.023,348.76,28.418,256.414,484.41,228.017,456.03,684.026
"pro","ste",2,"115825","pro_ste_run2_115825","NN",2,2,"flaw",4000,1,1040,1,1,389066,397865,398905,37844,23,351.222,360.021,361.061,28.418,256.414,484.41,228.017,456.03,684.026
"pro","ste",2,"115825","pro_ste_run2_115825","NN",3,1,"grain",2800,1,1541,1,1,403465,412264,413805,37844,24,365.621,374.42,375.961,28.418,256.414,484.41,228.017,456.03,684.026
"pro","ste",2,"115825","pro_ste_run2_115825","NP",2,2,"nerve",2800,1,1042,2,2,416664,425463,426505,37844,25,378.82,387.619,388.661,28.418,256.414,484.41,228.017,456.03,684.026
"pro","ste",2,"115825","pro_ste_run2_115825","NP",5,3,"class",4000,0,1231,1,2,429863,438662,439893,37844,26,392.019,400.818,402.049,28.418,256.414,484.41,228.017,456.03,684.026
"pro","ste",2,"115825","pro_ste_run2_115825","NN",2,2,"tally",2800,1,805,1,1,444261,453061,453866,37844,27,406.417,415.217,416.022,28.418,256.414,484.41,228.017,456.03,684.026
"pro","ste",2,"115825","pro_ste_run2_115825","NP",2,2,"photo",1600,1,633,2,2,457460,466259,466892,37844,28,419.616,428.415,429.048,28.418,256.414,484.41,228.017,456.03,684.026
"pro","ste",2,"115825","pro_ste_run2_115825","NN",5,2,"zebra",1600,0,0,NA,1,469459,478258,0,37844,29,431.615,440.414,-37.844,28.418,256.414,484.41,228.017,456.03,684.026
"pro","ste",2,"115825","pro_ste_run2_115825","RN",5,1,"pupil",2800,1,873,1,1,481458,490257,491130,37844,30,443.614,452.413,453.286,28.418,256.414,484.41,228.017,456.03,684.026
"pro","ste",2,"115825","pro_ste_run2_115825","NN",2,1,"list",2800,1,1312,1,1,524654,533453,534765,37844,31,486.81,495.609,496.921,28.418,256.414,484.41,228.017,456.03,684.026
"pro","ste",2,"115825","pro_ste_run2_115825","NP",3,1,"tissue",2800,1,1025,2,2,537853,546652,547677,37844,32,500.009,508.808,509.833,28.418,256.414,484.41,228.017,456.03,684.026
"pro","ste",2,"115825","pro_ste_run2_115825","NP",2,3,"point",1600,1,1084,2,2,551052,559851,560935,37844,33,513.208,522.007,523.091,28.418,256.414,484.41,228.017,456.03,684.026
"pro","ste",2,"115825","pro_ste_run2_115825","NN",5,2,"output",1600,1,838,1,1,563051,571866,572704,37844,34,525.207,534.022,534.86,28.418,256.414,484.41,228.017,456.03,684.026
"pro","ste",2,"115825","pro_ste_run2_115825","NP",5,3,"finger",2800,1,746,2,2,575066,583865,584611,37844,35,537.222,546.021,546.767,28.418,256.414,484.41,228.017,456.03,684.026
"pro","ste",2,"115825","pro_ste_run2_115825","NP",2,3,"grace",4000,0,0,NA,2,588265,597064,0,37844,36,550.421,559.22,-37.844,28.418,256.414,484.41,228.017,456.03,684.026
"pro","ste",2,"115825","pro_ste_run2_115825","NN",3,2,"filter",4000,1,1066,1,1,602664,611463,612529,37844,37,564.82,573.619,574.685,28.418,256.414,484.41,228.017,456.03,684.026
"pro","ste",2,"115825","pro_ste_run2_115825","NP",5,3,"click",2800,1,784,2,2,617062,625862,626646,37844,38,579.218,588.018,588.802,28.418,256.414,484.41,228.017,456.03,684.026
"pro","ste",2,"115825","pro_ste_run2_115825","NN",3,2,"cows",4000,1,835,1,1,630261,639060,639895,37844,39,592.417,601.216,602.051,28.418,256.414,484.41,228.017,456.03,684.026
"pro","ste",2,"115825","pro_ste_run2_115825","RN",5,1,"need",1600,1,561,1,1,644660,653459,654020,37844,40,606.816,615.615,616.176,28.418,256.414,484.41,228.017,456.03,684.026
"pro","ste",2,"115825","pro_ste_run2_115825","NP",5,3,"void",1600,1,571,2,2,656659,665458,666029,37844,41,618.815,627.614,628.185,28.418,256.414,484.41,228.017,456.03,684.026
"pro","ste",2,"115825","pro_ste_run2_115825","NP",2,3,"talent",4000,1,639,2,2,668658,677457,678096,37844,42,630.814,639.613,640.252,28.418,256.414,484.41,228.017,456.03,684.026
"pro","ste",2,"115825","pro_ste_run2_115825","NP",4,1,"clown",2800,0,0,NA,2,683056,691856,0,37844,43,645.212,654.012,-37.844,28.418,256.414,484.41,228.017,456.03,684.026
"pro","ste",2,"115825","pro_ste_run2_115825","NN",5,2,"signal",4000,1,876,1,1,696255,705054,705930,37844,44,658.411,667.21,668.086,28.418,256.414,484.41,228.017,456.03,684.026
"pro","ste",2,"115825","pro_ste_run2_115825","NN",4,1,"grip",1600,1,756,1,1,710654,719453,720209,37844,45,672.81,681.609,682.365,28.418,256.414,484.41,228.017,456.03,684.026
"rea","ste",1,"115825","rea_ste_run1_115825","NP",8,2,"brow",4000,1,815,2,2,134385,143191,144006,103565,1,30.82,39.626,40.441,28.418,256.424,484.413,228.035,456.024,684.03
"rea","ste",1,"115825","rea_ste_run1_115825","RN",5,2,"jets",4000,1,959,1,1,148779,157586,158545,103565,2,45.214,54.021,54.98,28.418,256.424,484.413,228.035,456.024,684.03
"rea","ste",1,"115825","rea_ste_run1_115825","NP",5,3,"touch",4000,0,1582,1,2,163190,171980,173562,103565,3,59.625,68.415,69.997,28.418,256.424,484.413,228.035,456.024,684.03
"rea","ste",1,"115825","rea_ste_run1_115825","NP",5,3,"pound",2800,1,1073,2,2,177584,186391,187464,103565,4,74.019,82.826,83.899,28.418,256.424,484.413,228.035,456.024,684.03
"rea","ste",1,"115825","rea_ste_run1_115825","RN",7,1,"rivals",1600,1,1152,1,1,190777,199584,200736,103565,5,87.212,96.019,97.171,28.418,256.424,484.413,228.035,456.024,684.03
"rea","ste",1,"115825","rea_ste_run1_115825","NP",6,1,"name",2800,0,1713,1,2,202787,211576,213289,103565,6,99.222,108.011,109.724,28.418,256.424,484.413,228.035,456.024,684.03
"rea","ste",1,"115825","rea_ste_run1_115825","NP",7,2,"world",1600,1,898,2,2,215980,224786,225684,103565,7,112.415,121.221,122.119,28.418,256.424,484.413,228.035,456.024,684.03
"rea","ste",1,"115825","rea_ste_run1_115825","RN",8,2,"marker",2800,0,1571,2,1,227989,236779,238350,103565,8,124.424,133.214,134.785,28.418,256.424,484.413,228.035,456.024,684.03
"rea","ste",1,"115825","rea_ste_run1_115825","NP",5,3,"wife",1600,1,1210,2,2,241182,249989,251199,103565,9,137.617,146.424,147.634,28.418,256.424,484.413,228.035,456.024,684.03
"rea","ste",1,"115825","rea_ste_run1_115825","RN",5,2,"paper",1600,1,1652,1,1,253191,261981,263633,103565,10,149.626,158.416,160.068,28.418,256.424,484.413,228.035,456.024,684.03
"rea","ste",1,"115825","rea_ste_run1_115825","NN",5,1,"chin",4000,1,702,1,1,265184,273990,274692,103565,11,161.619,170.425,171.127,28.418,256.424,484.413,228.035,456.024,684.03
"rea","ste",1,"115825","rea_ste_run1_115825","NP",7,2,"grill",1600,0,0,NA,2,279578,288385,0,103565,12,176.013,184.82,-103.565,28.418,256.424,484.413,228.035,456.024,684.03
"rea","ste",1,"115825","rea_ste_run1_115825","RN",8,2,"rhyme",2800,1,944,1,1,291587,300377,301321,103565,13,188.022,196.812,197.756,28.418,256.424,484.413,228.035,456.024,684.03
"rea","ste",1,"115825","rea_ste_run1_115825","NP",8,2,"goods",2800,1,691,2,2,304780,313587,314278,103565,14,201.215,210.022,210.713,28.418,256.424,484.413,228.035,456.024,684.03
"rea","ste",1,"115825","rea_ste_run1_115825","RN",6,1,"reign",4000,0,0,NA,1,317990,326780,0,103565,15,214.425,223.215,-103.565,28.418,256.424,484.413,228.035,456.024,684.03
"rea","ste",1,"115825","rea_ste_run1_115825","NP",5,3,"harbor",4000,1,644,2,2,362390,371180,371824,103565,16,258.825,267.615,268.259,28.418,256.424,484.413,228.035,456.024,684.03
"rea","ste",1,"115825","rea_ste_run1_115825","RN",7,1,"boat",1600,1,764,1,1,376785,385591,386355,103565,17,273.22,282.026,282.79,28.418,256.424,484.413,228.035,456.024,684.03
"rea","ste",1,"115825","rea_ste_run1_115825","RN",8,2,"hour",1600,0,0,NA,1,388777,397584,0,103565,18,285.212,294.019,-103.565,28.418,256.424,484.413,228.035,456.024,684.03
"rea","ste",1,"115825","rea_ste_run1_115825","NP",8,3,"tongue",2800,1,348,2,2,400786,409576,409924,103565,19,297.221,306.011,306.359,28.418,256.424,484.413,228.035,456.024,684.03
"rea","ste",1,"115825","rea_ste_run1_115825","RN",6,1,"beam",2800,1,585,1,1,413979,422786,423371,103565,20,310.414,319.221,319.806,28.418,256.424,484.413,228.035,456.024,684.03
"rea","ste",1,"115825","rea_ste_run1_115825","NN",5,1,"ruler",4000,0,0,NA,1,427189,435979,0,103565,21,323.624,332.414,-103.565,28.418,256.424,484.413,228.035,456.024,684.03
"rea","ste",1,"115825","rea_ste_run1_115825","NP",5,3,"dryer",1600,1,890,2,2,441584,450390,451280,103565,22,338.019,346.825,347.715,28.418,256.424,484.413,228.035,456.024,684.03
"rea","ste",1,"115825","rea_ste_run1_115825","RN",8,2,"jazz",1600,1,1305,1,1,453576,462383,463688,103565,23,350.011,358.818,360.123,28.418,256.424,484.413,228.035,456.024,684.03
"rea","ste",1,"115825","rea_ste_run1_115825","RN",5,2,"blaze",2800,1,1648,1,1,465585,474392,476040,103565,24,362.02,370.827,372.475,28.418,256.424,484.413,228.035,456.024,684.03
"rea","ste",1,"115825","rea_ste_run1_115825","NP",8,3,"visit",4000,0,929,1,2,478778,487585,488514,103565,25,375.213,384.02,384.949,28.418,256.424,484.413,228.035,456.024,684.03
"rea","ste",1,"115825","rea_ste_run1_115825","RN",5,2,"ideals",4000,1,916,1,1,493189,501979,502895,103565,26,389.624,398.414,399.33,28.418,256.424,484.413,228.035,456.024,684.03
"rea","ste",1,"115825","rea_ste_run1_115825","NP",5,3,"plate",2800,0,0,NA,2,507583,516390,0,103565,27,404.018,412.825,-103.565,28.418,256.424,484.413,228.035,456.024,684.03
"rea","ste",1,"115825","rea_ste_run1_115825","NP",7,2,"spark",1600,0,0,NA,2,520777,529583,0,103565,28,417.212,426.018,-103.565,28.418,256.424,484.413,228.035,456.024,684.03
"rea","ste",1,"115825","rea_ste_run1_115825","NP",8,3,"males",4000,1,1095,2,2,532786,541576,542671,103565,29,429.221,438.011,439.106,28.418,256.424,484.413,228.035,456.024,684.03
"rea","ste",1,"115825","rea_ste_run1_115825","NP",7,2,"setup",2800,1,810,2,2,547180,555987,556797,103565,30,443.615,452.422,453.232,28.418,256.424,484.413,228.035,456.024,684.03
"rea","ste",1,"115825","rea_ste_run1_115825","NP",5,3,"answer",4000,0,914,1,2,590379,599186,600100,103565,31,486.814,495.621,496.535,28.418,256.424,484.413,228.035,456.024,684.03
"rea","ste",1,"115825","rea_ste_run1_115825","RN",5,2,"hawk",2800,1,1718,1,1,604790,613580,615298,103565,32,501.225,510.015,511.733,28.418,256.424,484.413,228.035,456.024,684.03
"rea","ste",1,"115825","rea_ste_run1_115825","NN",8,1,"train",2800,1,895,1,1,617984,626790,627685,103565,33,514.419,523.225,524.12,28.418,256.424,484.413,228.035,456.024,684.03
"rea","ste",1,"115825","rea_ste_run1_115825","RN",8,2,"poppy",4000,0,755,2,1,631177,639983,640738,103565,34,527.612,536.418,537.173,28.418,256.424,484.413,228.035,456.024,684.03
"rea","ste",1,"115825","rea_ste_run1_115825","RN",7,2,"wave",1600,0,1319,2,1,645588,654378,655697,103565,35,542.023,550.813,552.132,28.418,256.424,484.413,228.035,456.024,684.03
"rea","ste",1,"115825","rea_ste_run1_115825","RN",8,2,"days",2800,0,896,2,1,657580,666387,667283,103565,36,554.015,562.822,563.718,28.418,256.424,484.413,228.035,456.024,684.03
"rea","ste",1,"115825","rea_ste_run1_115825","RN",7,2,"need",4000,0,1252,2,1,670790,679580,680832,103565,37,567.225,576.015,577.267,28.418,256.424,484.413,228.035,456.024,684.03
"rea","ste",1,"115825","rea_ste_run1_115825","NP",5,3,"hose",4000,1,1006,2,2,685184,693991,694997,103565,38,581.619,590.426,591.432,28.418,256.424,484.413,228.035,456.024,684.03
"rea","ste",1,"115825","rea_ste_run1_115825","RN",5,2,"drip",1600,0,876,2,1,699578,708385,709261,103565,39,596.013,604.82,605.696,28.418,256.424,484.413,228.035,456.024,684.03
"rea","ste",1,"115825","rea_ste_run1_115825","NN",5,1,"finger",2800,1,1619,1,1,711588,720378,721997,103565,40,608.023,616.813,618.432,28.418,256.424,484.413,228.035,456.024,684.03
"rea","ste",1,"115825","rea_ste_run1_115825","NP",8,2,"charge",1600,1,1412,2,2,724781,733588,735000,103565,41,621.216,630.023,631.435,28.418,256.424,484.413,228.035,456.024,684.03
"rea","ste",1,"115825","rea_ste_run1_115825","NP",7,1,"drum",1600,1,734,2,2,736790,745580,746314,103565,42,633.225,642.015,642.749,28.418,256.424,484.413,228.035,456.024,684.03
"rea","ste",1,"115825","rea_ste_run1_115825","NP",5,3,"spell",4000,0,717,1,2,748782,757589,758306,103565,43,645.217,654.024,654.741,28.418,256.424,484.413,228.035,456.024,684.03
"rea","ste",1,"115825","rea_ste_run1_115825","NP",6,1,"people",2800,1,1193,2,2,763177,771983,773176,103565,44,659.612,668.418,669.611,28.418,256.424,484.413,228.035,456.024,684.03
"rea","ste",1,"115825","rea_ste_run1_115825","NP",8,2,"rattle",1600,0,1476,1,2,776387,785176,786652,103565,45,672.822,681.611,683.087,28.418,256.424,484.413,228.035,456.024,684.03
"rea","ste",2,"115825","rea_ste_run2_115825","NN",5,1,"food",4000,1,852,1,1,58699,67506,68358,27882,1,30.817,39.624,40.476,28.415,256.421,484.427,228.033,456.022,684.027
"rea","ste",2,"115825","rea_ste_run2_115825","NP",8,2,"rider",4000,1,890,2,2,73110,81900,82790,27882,2,45.228,54.018,54.908,28.415,256.421,484.427,228.033,456.022,684.027
"rea","ste",2,"115825","rea_ste_run2_115825","RN",8,2,"slug",1600,0,647,2,1,87504,96294,96941,27882,3,59.622,68.412,69.059,28.415,256.421,484.427,228.033,456.022,684.027
"rea","ste",2,"115825","rea_ste_run2_115825","RN",8,2,"witch",2800,0,636,2,1,99497,108303,108939,27882,4,71.615,80.421,81.057,28.415,256.421,484.427,228.033,456.022,684.027
"rea","ste",2,"115825","rea_ste_run2_115825","RN",5,2,"stain",2800,1,831,1,1,112707,121497,122328,27882,5,84.825,93.615,94.446,28.415,256.421,484.427,228.033,456.022,684.027
"rea","ste",2,"115825","rea_ste_run2_115825","NN",7,1,"herd",2800,1,1171,1,1,125900,134707,135878,27882,6,98.018,106.825,107.996,28.415,256.421,484.427,228.033,456.022,684.027
"rea","ste",2,"115825","rea_ste_run2_115825","NP",7,1,"flag",1600,1,1042,2,2,139110,147900,148942,27882,7,111.228,120.018,121.06,28.415,256.421,484.427,228.033,456.022,684.027
"rea","ste",2,"115825","rea_ste_run2_115825","RN",6,1,"maid",4000,0,787,2,1,151102,159909,160696,27882,8,123.22,132.027,132.814,28.415,256.421,484.427,228.033,456.022,684.027
"rea","ste",2,"115825","rea_ste_run2_115825","NP",6,1,"wall",4000,0,1269,1,2,165497,174303,175572,27882,9,137.615,146.421,147.69,28.415,256.421,484.427,228.033,456.022,684.027
"rea","ste",2,"115825","rea_ste_run2_115825","NP",5,3,"zipper",2800,1,747,2,2,179907,188697,189444,27882,10,152.025,160.815,161.562,28.415,256.421,484.427,228.033,456.022,684.027
"rea","ste",2,"115825","rea_ste_run2_115825","RN",5,2,"pair",1600,0,0,NA,1,193101,201907,0,27882,11,165.219,174.025,-27.882,28.415,256.421,484.427,228.033,456.022,684.027
"rea","ste",2,"115825","rea_ste_run2_115825","NP",8,2,"tree",1600,0,1096,1,2,205110,213900,214996,27882,12,177.228,186.018,187.114,28.415,256.421,484.427,228.033,456.022,684.027
"rea","ste",2,"115825","rea_ste_run2_115825","NP",5,3,"photo",2800,1,785,2,2,217102,225909,226694,27882,13,189.22,198.027,198.812,28.415,256.421,484.427,228.033,456.022,684.027
"rea","ste",2,"115825","rea_ste_run2_115825","NP",5,3,"girl",4000,1,1404,2,2,230295,239102,240506,27882,14,202.413,211.22,212.624,28.415,256.421,484.427,228.033,456.022,684.027
"rea","ste",2,"115825","rea_ste_run2_115825","RN",7,1,"quart",1600,0,1371,2,1,244706,253496,254867,27882,15,216.824,225.614,226.985,28.415,256.421,484.427,228.033,456.022,684.027
"rea","ste",2,"115825","rea_ste_run2_115825","NN",8,1,"rest",4000,1,1010,1,1,286705,295495,296505,27882,16,258.823,267.613,268.623,28.415,256.421,484.427,228.033,456.022,684.027
"rea","ste",2,"115825","rea_ste_run2_115825","NP",7,2,"singer",1600,1,795,2,2,301099,309906,310701,27882,17,273.217,282.024,282.819,28.415,256.421,484.427,228.033,456.022,684.027
"rea","ste",2,"115825","rea_ste_run2_115825","RN",8,2,"prince",1600,1,815,1,1,313108,321898,322713,27882,18,285.226,294.016,294.831,28.415,256.421,484.427,228.033,456.022,684.027
"rea","ste",2,"115825","rea_ste_run2_115825","NP",5,3,"pals",1600,0,0,NA,2,325100,333907,0,27882,19,297.218,306.025,-27.882,28.415,256.421,484.427,228.033,456.022,684.027
"rea","ste",2,"115825","rea_ste_run2_115825","NP",5,3,"cotton",2800,1,893,2,2,337110,345900,346793,27882,20,309.228,318.018,318.911,28.415,256.421,484.427,228.033,456.022,684.027
"rea","ste",2,"115825","rea_ste_run2_115825","NP",5,3,"chest",4000,1,1288,2,2,350303,359109,360397,27882,21,322.421,331.227,332.515,28.415,256.421,484.427,228.033,456.022,684.027
"rea","ste",2,"115825","rea_ste_run2_115825","NP",8,2,"dawn",4000,0,0,NA,2,364697,373504,0,27882,22,336.815,345.622,-27.882,28.415,256.421,484.427,228.033,456.022,684.027
"rea","ste",2,"115825","rea_ste_run2_115825","RN",5,2,"praise",1600,1,890,1,1,379108,387898,388788,27882,23,351.226,360.016,360.906,28.415,256.421,484.427,228.033,456.022,684.027
"rea","ste",2,"115825","rea_ste_run2_115825","RN",5,2,"walker",4000,1,1313,1,1,391100,399907,401220,27882,24,363.218,372.025,373.338,28.415,256.421,484.427,228.033,456.022,684.027
"rea","ste",2,"115825","rea_ste_run2_115825","NN",5,1,"grass",2800,1,1015,1,1,405495,414301,415316,27882,25,377.613,386.419,387.434,28.415,256.421,484.427,228.033,456.022,684.027
"rea","ste",2,"115825","rea_ste_run2_115825","NP",8,2,"charm",2800,1,867,2,2,418705,427494,428361,27882,26,390.823,399.612,400.479,28.415,256.421,484.427,228.033,456.022,684.027
"rea","ste",2,"115825","rea_ste_run2_115825","RN",8,2,"barber",2800,0,1428,2,1,431898,440704,442132,27882,27,404.016,412.822,414.25,28.415,256.421,484.427,228.033,456.022,684.027
"rea","ste",2,"115825","rea_ste_run2_115825","RN",6,1,"motor",4000,1,638,1,1,445108,453898,454536,27882,28,417.226,426.016,426.654,28.415,256.421,484.427,228.033,456.022,684.027
"rea","ste",2,"115825","rea_ste_run2_115825","RN",7,1,"east",2800,1,855,1,1,459502,468309,469164,27882,29,431.62,440.427,441.282,28.415,256.421,484.427,228.033,456.022,684.027
"rea","ste",2,"115825","rea_ste_run2_115825","NP",7,2,"oats",1600,1,956,2,2,472695,481502,482458,27882,30,444.813,453.62,454.576,28.415,256.421,484.427,228.033,456.022,684.027
"rea","ste",2,"115825","rea_ste_run2_115825","NP",8,3,"slip",2800,0,0,NA,2,514694,523500,0,27882,31,486.812,495.618,-27.882,28.415,256.421,484.427,228.033,456.022,684.027
"rea","ste",2,"115825","rea_ste_run2_115825","RN",7,2,"note",4000,1,874,1,1,527904,536694,537568,27882,32,500.022,508.812,509.686,28.415,256.421,484.427,228.033,456.022,684.027
"rea","ste",2,"115825","rea_ste_run2_115825","RN",5,2,"tile",2800,1,776,1,1,542298,551105,551881,27882,33,514.416,523.223,523.999,28.415,256.421,484.427,228.033,456.022,684.027
"rea","ste",2,"115825","rea_ste_run2_115825","NP",5,3,"winner",2800,1,1075,2,2,555508,564298,565373,27882,34,527.626,536.416,537.491,28.415,256.421,484.427,228.033,456.022,684.027
"rea","ste",2,"115825","rea_ste_run2_115825","NN",5,1,"flick",2800,0,0,NA,1,568701,577508,0,27882,35,540.819,549.626,-27.882,28.415,256.421,484.427,228.033,456.022,684.027
"rea","ste",2,"115825","rea_ste_run2_115825","NP",8,3,"glove",1600,1,883,2,2,581894,590701,591584,27882,36,554.012,562.819,563.702,28.415,256.421,484.427,228.033,456.022,684.027
"rea","ste",2,"115825","rea_ste_run2_115825","RN",5,2,"list",1600,1,817,1,1,593904,602710,603527,27882,37,566.022,574.828,575.645,28.415,256.421,484.427,228.033,456.022,684.027
"rea","ste",2,"115825","rea_ste_run2_115825","NP",5,3,"beach",1600,0,0,NA,2,605896,614703,0,27882,38,578.014,586.821,-27.882,28.415,256.421,484.427,228.033,456.022,684.027
"rea","ste",2,"115825","rea_ste_run2_115825","NP",5,3,"bugs",4000,0,473,1,2,617905,626695,627168,27882,39,590.023,598.813,599.286,28.415,256.421,484.427,228.033,456.022,684.027
"rea","ste",2,"115825","rea_ste_run2_115825","NP",7,1,"suit",4000,1,773,2,2,632299,641106,641879,27882,40,604.417,613.224,613.997,28.415,256.421,484.427,228.033,456.022,684.027
"rea","ste",2,"115825","rea_ste_run2_115825","RN",8,1,"dock",1600,1,1619,1,1,646710,655500,657119,27882,41,618.828,627.618,629.237,28.415,256.421,484.427,228.033,456.022,684.027
"rea","ste",2,"115825","rea_ste_run2_115825","RN",6,1,"folder",2800,1,1523,1,1,658702,667509,669032,27882,42,630.82,639.627,641.15,28.415,256.421,484.427,228.033,456.022,684.027
"rea","ste",2,"115825","rea_ste_run2_115825","NP",8,3,"owner",1600,1,638,2,2,671896,680702,681340,27882,43,644.014,652.82,653.458,28.415,256.421,484.427,228.033,456.022,684.027
"rea","ste",2,"115825","rea_ste_run2_115825","NP",6,1,"washer",4000,1,937,2,2,683905,692695,693632,27882,44,656.023,664.813,665.75,28.415,256.421,484.427,228.033,456.022,684.027
"rea","ste",2,"115825","rea_ste_run2_115825","RN",7,2,"void",4000,0,0,NA,1,698299,707106,0,27882,45,670.417,679.224,-27.882,28.415,256.421,484.427,228.033,456.022,684.027
"bas","ste",1,"130114","bas_ste_run1_130114","NP",5,3,"syrup",4000,0,924,1,2,127883,136682,137606,97072,1,30.811,39.61,40.534,28.411,256.407,484.402,228.026,456.021,684.017
"bas","ste",1,"130114","bas_ste_run1_130114","NN",8,2,"scale",1600,0,777,2,1,142282,151081,151858,97072,2,45.21,54.009,54.786,28.411,256.407,484.402,228.026,456.021,684.017
"bas","ste",1,"130114","bas_ste_run1_130114","NN",8,2,"doll",4000,0,847,2,1,154281,163080,163927,97072,3,57.209,66.008,66.855,28.411,256.407,484.402,228.026,456.021,684.017
"bas","ste",1,"130114","bas_ste_run1_130114","NP",5,3,"threat",4000,1,1173,2,2,168679,177478,178651,97072,4,71.607,80.406,81.579,28.411,256.407,484.402,228.026,456.021,684.017
"bas","ste",1,"130114","bas_ste_run1_130114","NN",6,1,"parrot",1600,1,835,1,1,183078,191877,192712,97072,5,86.006,94.805,95.64,28.411,256.407,484.402,228.026,456.021,684.017
"bas","ste",1,"130114","bas_ste_run1_130114","NP",8,2,"chance",2800,1,1734,2,2,195077,203876,205610,97072,6,98.005,106.804,108.538,28.411,256.407,484.402,228.026,456.021,684.017
"bas","ste",1,"130114","bas_ste_run1_130114","NN",5,2,"blur",2800,1,822,1,1,208276,217075,217897,97072,7,111.204,120.003,120.825,28.411,256.407,484.402,228.026,456.021,684.017
"bas","ste",1,"130114","bas_ste_run1_130114","NP",7,2,"rash",4000,1,1344,2,2,221474,230273,231617,97072,8,124.402,133.201,134.545,28.411,256.407,484.402,228.026,456.021,684.017
"bas","ste",1,"130114","bas_ste_run1_130114","NN",5,2,"tube",2800,1,1095,1,1,235873,244672,245767,97072,9,138.801,147.6,148.695,28.411,256.407,484.402,228.026,456.021,684.017
"bas","ste",1,"130114","bas_ste_run1_130114","NP",5,3,"share",1600,1,1352,2,2,249072,257888,259240,97072,10,152,160.816,162.168,28.411,256.407,484.402,228.026,456.021,684.017
"bas","ste",1,"130114","bas_ste_run1_130114","NP",7,2,"wealth",1600,1,1796,2,2,261087,269886,271682,97072,11,164.015,172.814,174.61,28.411,256.407,484.402,228.026,456.021,684.017
"bas","ste",1,"130114","bas_ste_run1_130114","NP",8,2,"bush",1600,1,1108,2,2,273086,281885,282993,97072,12,176.014,184.813,185.921,28.411,256.407,484.402,228.026,456.021,684.017
"bas","ste",1,"130114","bas_ste_run1_130114","NN",7,1,"straw",4000,1,1314,1,1,285085,293884,295198,97072,13,188.013,196.812,198.126,28.411,256.407,484.402,228.026,456.021,684.017
"bas","ste",1,"130114","bas_ste_run1_130114","NP",6,1,"frost",2800,1,1535,2,2,299484,308283,309818,97072,14,202.412,211.211,212.746,28.411,256.407,484.402,228.026,456.021,684.017
"bas","ste",1,"130114","bas_ste_run1_130114","RN",5,1,"quart",2800,1,1834,1,1,312682,321482,323316,97072,15,215.61,224.41,226.244,28.411,256.407,484.402,228.026,456.021,684.017
"bas","ste",1,"130114","bas_ste_run1_130114","NN",6,1,"taxi",1600,1,902,1,1,355878,364678,365580,97072,16,258.806,267.606,268.508,28.411,256.407,484.402,228.026,456.021,684.017
"bas","ste",1,"130114","bas_ste_run1_130114","NN",8,2,"liar",4000,1,1390,1,1,367877,376677,378067,97072,17,270.805,279.605,280.995,28.411,256.407,484.402,228.026,456.021,684.017
"bas","ste",1,"130114","bas_ste_run1_130114","NP",7,2,"need",1600,1,1339,2,2,382276,391075,392414,97072,18,285.204,294.003,295.342,28.411,256.407,484.402,228.026,456.021,684.017
"bas","ste",1,"130114","bas_ste_run1_130114","NP",7,2,"bean",1600,1,1201,2,2,394275,403074,404275,97072,19,297.203,306.002,307.203,28.411,256.407,484.402,228.026,456.021,684.017
"bas","ste",1,"130114","bas_ste_run1_130114","NP",8,3,"bees",4000,1,1552,2,2,406274,415073,416625,97072,20,309.202,318.001,319.553,28.411,256.407,484.402,228.026,456.021,684.017
"bas","ste",1,"130114","bas_ste_run1_130114","NP",5,3,"visit",1600,1,961,2,2,420672,429472,430433,97072,21,323.6,332.4,333.361,28.411,256.407,484.402,228.026,456.021,684.017
"bas","ste",1,"130114","bas_ste_run1_130114","NN",7,1,"logic",2800,1,1789,1,1,432688,441487,443276,97072,22,335.616,344.415,346.204,28.411,256.407,484.402,228.026,456.021,684.017
"bas","ste",1,"130114","bas_ste_run1_130114","NP",5,3,"people",1600,1,1202,2,2,445887,454686,455888,97072,23,348.815,357.614,358.816,28.411,256.407,484.402,228.026,456.021,684.017
"bas","ste",1,"130114","bas_ste_run1_130114","NN",8,2,"heater",2800,0,1078,2,1,457886,466685,467763,97072,24,360.814,369.613,370.691,28.411,256.407,484.402,228.026,456.021,684.017
"bas","ste",1,"130114","bas_ste_run1_130114","RN",5,1,"noise",2800,1,1003,1,1,471084,479884,480887,97072,25,374.012,382.812,383.815,28.411,256.407,484.402,228.026,456.021,684.017
"bas","ste",1,"130114","bas_ste_run1_130114","NN",5,2,"pole",2800,1,1758,1,1,484283,493082,494840,97072,26,387.211,396.01,397.768,28.411,256.407,484.402,228.026,456.021,684.017
"bas","ste",1,"130114","bas_ste_run1_130114","NP",8,3,"city",4000,1,1421,2,2,497482,506281,507702,97072,27,400.41,409.209,410.63,28.411,256.407,484.402,228.026,456.021,684.017
"bas","ste",1,"130114","bas_ste_run1_130114","NP",8,3,"carpet",4000,1,1053,2,2,511881,520680,521733,97072,28,414.809,423.608,424.661,28.411,256.407,484.402,228.026,456.021,684.017
"bas","ste",1,"130114","bas_ste_run1_130114","NP",5,3,"tags",2800,1,672,2,2,526279,535078,535750,97072,29,429.207,438.006,438.678,28.411,256.407,484.402,228.026,456.021,684.017
"bas","ste",1,"130114","bas_ste_run1_130114","NN",5,2,"greed",4000,1,1198,1,1,539478,548277,549475,97072,30,442.406,451.205,452.403,28.411,256.407,484.402,228.026,456.021,684.017
"bas","ste",1,"130114","bas_ste_run1_130114","NN",5,2,"pans",1600,1,1025,1,1,583874,592673,593698,97072,31,486.802,495.601,496.626,28.411,256.407,484.402,228.026,456.021,684.017
"bas","ste",1,"130114","bas_ste_run1_130114","NP",5,3,"muscle",2800,1,1090,2,2,595873,604672,605762,97072,32,498.801,507.6,508.69,28.411,256.407,484.402,228.026,456.021,684.017
"bas","ste",1,"130114","bas_ste_run1_130114","NP",8,2,"bugs",1600,1,1119,2,2,609072,617887,619006,97072,33,512,520.815,521.934,28.411,256.407,484.402,228.026,456.021,684.017
"bas","ste",1,"130114","bas_ste_run1_130114","RN",5,1,"fusion",4000,1,1536,1,1,621087,629886,631422,97072,34,524.015,532.814,534.35,28.411,256.407,484.402,228.026,456.021,684.017
"bas","ste",1,"130114","bas_ste_run1_130114","NN",8,2,"shell",4000,0,0,NA,1,635486,644285,0,97072,35,538.414,547.213,-97.072,28.411,256.407,484.402,228.026,456.021,684.017
"bas","ste",1,"130114","bas_ste_run1_130114","NP",7,1,"clue",4000,1,1112,2,2,649884,658684,659796,97072,36,552.812,561.612,562.724,28.411,256.407,484.402,228.026,456.021,684.017
"bas","ste",1,"130114","bas_ste_run1_130114","NP",8,2,"wife",2800,1,1078,2,2,664283,673082,674160,97072,37,567.211,576.01,577.088,28.411,256.407,484.402,228.026,456.021,684.017
"bas","ste",1,"130114","bas_ste_run1_130114","NN",5,2,"gift",2800,1,1254,1,1,677482,686281,687535,97072,38,580.41,589.209,590.463,28.411,256.407,484.402,228.026,456.021,684.017
"bas","ste",1,"130114","bas_ste_run1_130114","NP",6,1,"food",4000,0,0,NA,2,690681,699480,0,97072,39,593.609,602.408,-97.072,28.411,256.407,484.402,228.026,456.021,684.017
"bas","ste",1,"130114","bas_ste_run1_130114","RN",8,1,"ground",4000,1,1459,1,1,705079,713878,715337,97072,40,608.007,616.806,618.265,28.411,256.407,484.402,228.026,456.021,684.017
"bas","ste",1,"130114","bas_ste_run1_130114","NP",5,3,"marker",2800,1,1227,2,2,719478,728277,729504,97072,41,622.406,631.205,632.432,28.411,256.407,484.402,228.026,456.021,684.017
"bas","ste",1,"130114","bas_ste_run1_130114","NN",8,2,"signal",2800,1,1349,1,1,732677,741476,742825,97072,42,635.605,644.404,645.753,28.411,256.407,484.402,228.026,456.021,684.017
"bas","ste",1,"130114","bas_ste_run1_130114","NP",5,3,"curve",1600,1,779,2,2,745875,754675,755454,97072,43,648.803,657.603,658.382,28.411,256.407,484.402,228.026,456.021,684.017
"bas","ste",1,"130114","bas_ste_run1_130114","NN",7,2,"pledge",1600,1,1142,1,1,757874,766674,767816,97072,44,660.802,669.602,670.744,28.411,256.407,484.402,228.026,456.021,684.017
"bas","ste",1,"130114","bas_ste_run1_130114","NN",7,2,"berry",1600,1,1565,1,1,769873,778672,780237,97072,45,672.801,681.6,683.165,28.411,256.407,484.402,228.026,456.021,684.017
"bas","ste",2,"130114","bas_ste_run2_130114","NP",5,3,"north",4000,1,1352,2,2,65811,74610,75962,34985,1,30.826,39.625,40.977,28.426,256.422,484.417,228.024,456.02,684.032
"bas","ste",2,"130114","bas_ste_run2_130114","NP",5,3,"ransom",2800,1,931,2,2,80210,89009,89940,34985,2,45.225,54.024,54.955,28.426,256.422,484.417,228.024,456.02,684.032
"bas","ste",2,"130114","bas_ste_run2_130114","NN",5,2,"chin",1600,1,1087,1,1,93408,102208,103295,34985,3,58.423,67.223,68.31,28.426,256.422,484.417,228.024,456.02,684.032
"bas","ste",2,"130114","bas_ste_run2_130114","NN",6,1,"whale",2800,1,1722,1,1,105407,114207,115929,34985,4,70.422,79.222,80.944,28.426,256.422,484.417,228.024,456.02,684.032
"bas","ste",2,"130114","bas_ste_run2_130114","NN",8,2,"cotton",2800,1,1025,1,1,118606,127405,128430,34985,5,83.621,92.42,93.445,28.426,256.422,484.417,228.024,456.02,684.032
"bas","ste",2,"130114","bas_ste_run2_130114","NP",5,3,"wheel",1600,1,1303,2,2,131805,140604,141907,34985,6,96.82,105.619,106.922,28.426,256.422,484.417,228.024,456.02,684.032
"bas","ste",2,"130114","bas_ste_run2_130114","RN",5,1,"cabin",4000,1,1359,1,1,143804,152603,153962,34985,7,108.819,117.618,118.977,28.426,256.422,484.417,228.024,456.02,684.032
"bas","ste",2,"130114","bas_ste_run2_130114","NN",5,2,"hatch",2800,1,1364,1,1,158202,167002,168366,34985,8,123.217,132.017,133.381,28.426,256.422,484.417,228.024,456.02,684.032
"bas","ste",2,"130114","bas_ste_run2_130114","NN",7,1,"flame",2800,1,588,1,1,171401,180200,180788,34985,9,136.416,145.215,145.803,28.426,256.422,484.417,228.024,456.02,684.032
"bas","ste",2,"130114","bas_ste_run2_130114","NP",6,1,"dollar",1600,1,808,2,2,184600,193399,194207,34985,10,149.615,158.414,159.222,28.426,256.422,484.417,228.024,456.02,684.032
"bas","ste",2,"130114","bas_ste_run2_130114","NP",8,2,"exam",4000,0,883,1,2,196599,205398,206281,34985,11,161.614,170.413,171.296,28.426,256.422,484.417,228.024,456.02,684.032
"bas","ste",2,"130114","bas_ste_run2_130114","NN",8,2,"lesson",1600,1,1004,1,1,210998,219797,220801,34985,12,176.013,184.812,185.816,28.426,256.422,484.417,228.024,456.02,684.032
"bas","ste",2,"130114","bas_ste_run2_130114","NP",7,1,"teeth",4000,1,1027,2,2,222996,231796,232823,34985,13,188.011,196.811,197.838,28.426,256.422,484.417,228.024,456.02,684.032
"bas","ste",2,"130114","bas_ste_run2_130114","NP",8,2,"kids",4000,1,904,2,2,237395,246211,247115,34985,14,202.41,211.226,212.13,28.426,256.422,484.417,228.024,456.02,684.032
"bas","ste",2,"130114","bas_ste_run2_130114","RN",7,1,"jars",1600,0,1856,2,1,251810,260610,262466,34985,15,216.825,225.625,227.481,28.426,256.422,484.417,228.024,456.02,684.032
"bas","ste",2,"130114","bas_ste_run2_130114","NP",5,3,"harp",2800,1,819,2,2,293807,302606,303425,34985,16,258.822,267.621,268.44,28.426,256.422,484.417,228.024,456.02,684.032
"bas","ste",2,"130114","bas_ste_run2_130114","NN",8,2,"sled",1600,1,875,1,1,307005,315804,316679,34985,17,272.02,280.819,281.694,28.426,256.422,484.417,228.024,456.02,684.032
"bas","ste",2,"130114","bas_ste_run2_130114","RN",8,1,"house",4000,1,1290,1,1,319004,327803,329093,34985,18,284.019,292.818,294.108,28.426,256.422,484.417,228.024,456.02,684.032
"bas","ste",2,"130114","bas_ste_run2_130114","NP",5,3,"store",1600,0,0,NA,2,333403,342202,0,34985,19,298.418,307.217,-34.985,28.426,256.422,484.417,228.024,456.02,684.032
"bas","ste",2,"130114","bas_ste_run2_130114","RN",5,1,"soil",1600,1,1054,1,1,345402,354201,355255,34985,20,310.417,319.216,320.27,28.426,256.422,484.417,228.024,456.02,684.032
"bas","ste",2,"130114","bas_ste_run2_130114","NN",6,1,"zebra",2800,1,1719,1,1,357401,366200,367919,34985,21,322.416,331.215,332.934,28.426,256.422,484.417,228.024,456.02,684.032
"bas","ste",2,"130114","bas_ste_run2_130114","NP",8,2,"action",4000,0,0,NA,2,370599,379399,0,34985,22,335.614,344.414,-34.985,28.426,256.422,484.417,228.024,456.02,684.032
"bas","ste",2,"130114","bas_ste_run2_130114","NN",7,1,"poison",1600,1,1017,1,1,384998,393797,394814,34985,23,350.013,358.812,359.829,28.426,256.422,484.417,228.024,456.02,684.032
"bas","ste",2,"130114","bas_ste_run2_130114","NN",5,2,"heaven",2800,1,931,1,1,396997,405796,406727,34985,24,362.012,370.811,371.742,28.426,256.422,484.417,228.024,456.02,684.032
"bas","ste",2,"130114","bas_ste_run2_130114","NP",8,2,"text",4000,1,1008,2,2,410196,418995,420003,34985,25,375.211,384.01,385.018,28.426,256.422,484.417,228.024,456.02,684.032
"bas","ste",2,"130114","bas_ste_run2_130114","NP",5,3,"others",2800,0,880,1,2,424611,433410,434290,34985,26,389.626,398.425,399.305,28.426,256.422,484.417,228.024,456.02,684.032
"bas","ste",2,"130114","bas_ste_run2_130114","NP",7,2,"crime",4000,1,1076,2,2,437810,446609,447685,34985,27,402.825,411.624,412.7,28.426,256.422,484.417,228.024,456.02,684.032
"bas","ste",2,"130114","bas_ste_run2_130114","NN",5,2,"barber",4000,1,1494,1,1,452208,461008,462502,34985,28,417.223,426.023,427.517,28.426,256.422,484.417,228.024,456.02,684.032
"bas","ste",2,"130114","bas_ste_run2_130114","NN",8,2,"steel",1600,1,1187,1,1,466607,475406,476593,34985,29,431.622,440.421,441.608,28.426,256.422,484.417,228.024,456.02,684.032
"bas","ste",2,"130114","bas_ste_run2_130114","NP",7,2,"cherry",2800,1,1020,2,2,478606,487405,488425,34985,30,443.621,452.42,453.44,28.426,256.422,484.417,228.024,456.02,684.032
"bas","ste",2,"130114","bas_ste_run2_130114","NN",7,2,"book",2800,1,827,1,1,521802,530601,531428,34985,31,486.817,495.616,496.443,28.426,256.422,484.417,228.024,456.02,684.032
"bas","ste",2,"130114","bas_ste_run2_130114","NP",7,1,"photo",1600,1,1278,2,2,535001,543800,545078,34985,32,500.016,508.815,510.093,28.426,256.422,484.417,228.024,456.02,684.032
"bas","ste",2,"130114","bas_ste_run2_130114","NP",6,1,"profit",4000,0,1812,1,2,547000,555799,557611,34985,33,512.015,520.814,522.626,28.426,256.422,484.417,228.024,456.02,684.032
"bas","ste",2,"130114","bas_ste_run2_130114","NN",7,2,"word",4000,1,1028,1,1,561398,570197,571225,34985,34,526.413,535.212,536.24,28.426,256.422,484.417,228.024,456.02,684.032
"bas","ste",2,"130114","bas_ste_run2_130114","NP",8,3,"paper",4000,1,1031,2,2,575797,584596,585627,34985,35,540.812,549.611,550.642,28.426,256.422,484.417,228.024,456.02,684.032
"bas","ste",2,"130114","bas_ste_run2_130114","NP",8,3,"pony",1600,1,849,2,2,590196,598995,599844,34985,36,555.211,564.01,564.859,28.426,256.422,484.417,228.024,456.02,684.032
"bas","ste",2,"130114","bas_ste_run2_130114","NP",5,3,"fluid",1600,1,1124,2,2,602211,611010,612134,34985,37,567.226,576.025,577.149,28.426,256.422,484.417,228.024,456.02,684.032
"bas","ste",2,"130114","bas_ste_run2_130114","NN",8,1,"church",2800,1,1314,1,1,614210,623009,624323,34985,38,579.225,588.024,589.338,28.426,256.422,484.417,228.024,456.02,684.032
"bas","ste",2,"130114","bas_ste_run2_130114","NN",5,2,"story",1600,1,1348,1,1,627409,636208,637556,34985,39,592.424,601.223,602.571,28.426,256.422,484.417,228.024,456.02,684.032
"bas","ste",2,"130114","bas_ste_run2_130114","NP",5,3,"yard",2800,1,1123,2,2,639408,648207,649330,34985,40,604.423,613.222,614.345,28.426,256.422,484.417,228.024,456.02,684.032
"bas","ste",2,"130114","bas_ste_run2_130114","RN",5,1,"owner",4000,0,0,NA,1,652606,661406,0,34985,41,617.621,626.421,-34.985,28.426,256.422,484.417,228.024,456.02,684.032
"bas","ste",2,"130114","bas_ste_run2_130114","NP",5,3,"honey",2800,1,858,2,2,667005,675804,676662,34985,42,632.02,640.819,641.677,28.426,256.422,484.417,228.024,456.02,684.032
"bas","ste",2,"130114","bas_ste_run2_130114","NN",6,1,"cows",1600,1,992,1,1,680204,689003,689995,34985,43,645.219,654.018,655.01,28.426,256.422,484.417,228.024,456.02,684.032
"bas","ste",2,"130114","bas_ste_run2_130114","NP",8,3,"pilot",2800,1,1038,2,2,692203,701002,702040,34985,44,657.218,666.017,667.055,28.426,256.422,484.417,228.024,456.02,684.032
"bas","ste",2,"130114","bas_ste_run2_130114","NN",5,2,"train",4000,1,851,1,1,705402,714201,715052,34985,45,670.417,679.216,680.067,28.426,256.422,484.417,228.024,456.02,684.032
"pro","ste",1,"130114","pro_ste_run1_130114","NN",2,2,"vision",2800,1,842,1,1,123083,131882,132724,92274,1,30.809,39.608,40.45,28.409,256.409,484.409,228.03,456.03,684.03
"pro","ste",1,"130114","pro_ste_run1_130114","NP",5,3,"park",2800,1,831,2,2,136281,145096,145927,92274,2,44.007,52.822,53.653,28.409,256.409,484.409,228.03,456.03,684.03
"pro","ste",1,"130114","pro_ste_run1_130114","NN",4,1,"idea",4000,1,1310,1,1,149496,158295,159605,92274,3,57.222,66.021,67.331,28.409,256.409,484.409,228.03,456.03,684.03
"pro","ste",1,"130114","pro_ste_run1_130114","NP",5,3,"boiler",1600,1,1149,2,2,163894,172692,173841,92274,4,71.62,80.418,81.567,28.409,256.409,484.409,228.03,456.03,684.03
"pro","ste",1,"130114","pro_ste_run1_130114","NP",3,2,"ranch",4000,1,1864,2,2,175892,184691,186555,92274,5,83.618,92.417,94.281,28.409,256.409,484.409,228.03,456.03,684.03
"pro","ste",1,"130114","pro_ste_run1_130114","NN",5,2,"deed",1600,0,1262,2,1,190290,199089,200351,92274,6,98.016,106.815,108.077,28.409,256.409,484.409,228.03,456.03,684.03
"pro","ste",1,"130114","pro_ste_run1_130114","NN",2,2,"access",2800,1,1804,1,1,202288,211087,212891,92274,7,110.014,118.813,120.617,28.409,256.409,484.409,228.03,456.03,684.03
"pro","ste",1,"130114","pro_ste_run1_130114","NP",4,1,"ways",4000,1,758,2,2,215486,224285,225043,92274,8,123.212,132.011,132.769,28.409,256.409,484.409,228.03,456.03,684.03
"pro","ste",1,"130114","pro_ste_run1_130114","RN",5,1,"keeper",2800,0,1262,2,1,229884,238683,239945,92274,9,137.61,146.409,147.671,28.409,256.409,484.409,228.03,456.03,684.03
"pro","ste",1,"130114","pro_ste_run1_130114","NN",5,2,"item",4000,1,1183,1,1,243082,251881,253064,92274,10,150.808,159.607,160.79,28.409,256.409,484.409,228.03,456.03,684.03
"pro","ste",1,"130114","pro_ste_run1_130114","NN",3,1,"hope",4000,0,1532,2,1,257497,266295,267827,92274,11,165.223,174.021,175.553,28.409,256.409,484.409,228.03,456.03,684.03
"pro","ste",1,"130114","pro_ste_run1_130114","NP",5,3,"parent",1600,1,1352,2,2,271895,280693,282045,92274,12,179.621,188.419,189.771,28.409,256.409,484.409,228.03,456.03,684.03
"pro","ste",1,"130114","pro_ste_run1_130114","NP",2,2,"dryer",1600,1,968,2,2,283893,292692,293660,92274,13,191.619,200.418,201.386,28.409,256.409,484.409,228.03,456.03,684.03
"pro","ste",1,"130114","pro_ste_run1_130114","NP",2,2,"suit",1600,1,978,2,2,295891,304690,305668,92274,14,203.617,212.416,213.394,28.409,256.409,484.409,228.03,456.03,684.03
"pro","ste",1,"130114","pro_ste_run1_130114","NP",3,2,"nail",2800,1,952,2,2,307889,316688,317640,92274,15,215.615,224.414,225.366,28.409,256.409,484.409,228.03,456.03,684.03
"pro","ste",1,"130114","pro_ste_run1_130114","NP",5,3,"menu",2800,1,1050,2,2,351083,359882,360932,92274,16,258.809,267.608,268.658,28.409,256.409,484.409,228.03,456.03,684.03
"pro","ste",1,"130114","pro_ste_run1_130114","NN",5,2,"rage",1600,1,1111,1,1,364281,373096,374207,92274,17,272.007,280.822,281.933,28.409,256.409,484.409,228.03,456.03,684.03
"pro","ste",1,"130114","pro_ste_run1_130114","NN",2,2,"laser",2800,1,1409,1,1,376296,385095,386504,92274,18,284.022,292.821,294.23,28.409,256.409,484.409,228.03,456.03,684.03
"pro","ste",1,"130114","pro_ste_run1_130114","NP",2,3,"wool",4000,1,1122,2,2,389494,398293,399415,92274,19,297.22,306.019,307.141,28.409,256.409,484.409,228.03,456.03,684.03
"pro","ste",1,"130114","pro_ste_run1_130114","NP",5,3,"color",1600,1,1078,2,2,403892,412691,413769,92274,20,311.618,320.417,321.495,28.409,256.409,484.409,228.03,456.03,684.03
"pro","ste",1,"130114","pro_ste_run1_130114","NP",3,2,"saint",1600,1,1325,2,2,415890,424689,426014,92274,21,323.616,332.415,333.74,28.409,256.409,484.409,228.03,456.03,684.03
"pro","ste",1,"130114","pro_ste_run1_130114","NN",4,1,"critic",1600,1,938,1,1,427889,436687,437625,92274,22,335.615,344.413,345.351,28.409,256.409,484.409,228.03,456.03,684.03
"pro","ste",1,"130114","pro_ste_run1_130114","NN",5,2,"roses",2800,0,0,NA,1,439887,448685,0,92274,23,347.613,356.411,-92.274,28.409,256.409,484.409,228.03,456.03,684.03
"pro","ste",1,"130114","pro_ste_run1_130114","NN",3,1,"rumor",4000,1,1245,1,1,453085,461884,463129,92274,24,360.811,369.61,370.855,28.409,256.409,484.409,228.03,456.03,684.03
"pro","ste",1,"130114","pro_ste_run1_130114","NP",3,2,"heel",4000,0,372,1,2,467483,476281,476653,92274,25,375.209,384.007,384.379,28.409,256.409,484.409,228.03,456.03,684.03
"pro","ste",1,"130114","pro_ste_run1_130114","RN",5,1,"shell",1600,1,1333,1,1,481881,490696,492029,92274,26,389.607,398.422,399.755,28.409,256.409,484.409,228.03,456.03,684.03
"pro","ste",1,"130114","pro_ste_run1_130114","NP",5,3,"review",4000,1,1288,2,2,493896,502694,503982,92274,27,401.622,410.42,411.708,28.409,256.409,484.409,228.03,456.03,684.03
"pro","ste",1,"130114","pro_ste_run1_130114","NN",2,2,"rash",2800,1,1054,1,1,508293,517092,518146,92274,28,416.019,424.818,425.872,28.409,256.409,484.409,228.03,456.03,684.03
"pro","ste",1,"130114","pro_ste_run1_130114","NP",2,3,"chip",4000,1,1182,2,2,521492,530290,531472,92274,29,429.218,438.016,439.198,28.409,256.409,484.409,228.03,456.03,684.03
"pro","ste",1,"130114","pro_ste_run1_130114","NP",2,3,"parade",2800,1,1137,2,2,535889,544688,545825,92274,30,443.615,452.414,453.551,28.409,256.409,484.409,228.03,456.03,684.03
"pro","ste",1,"130114","pro_ste_run1_130114","NP",4,1,"verse",4000,0,0,NA,2,579083,587882,0,92274,31,486.809,495.608,-92.274,28.409,256.409,484.409,228.03,456.03,684.03
"pro","ste",1,"130114","pro_ste_run1_130114","NN",3,2,"torch",2800,1,966,1,1,593481,602296,603262,92274,32,501.207,510.022,510.988,28.409,256.409,484.409,228.03,456.03,684.03
"pro","ste",1,"130114","pro_ste_run1_130114","NN",5,2,"deal",1600,1,843,1,1,606696,615494,616337,92274,33,514.422,523.22,524.063,28.409,256.409,484.409,228.03,456.03,684.03
"pro","ste",1,"130114","pro_ste_run1_130114","NP",5,3,"clay",2800,1,834,2,2,618694,627493,628327,92274,34,526.42,535.219,536.053,28.409,256.409,484.409,228.03,456.03,684.03
"pro","ste",1,"130114","pro_ste_run1_130114","NP",5,3,"forest",4000,1,1464,2,2,631892,640691,642155,92274,35,539.618,548.417,549.881,28.409,256.409,484.409,228.03,456.03,684.03
"pro","ste",1,"130114","pro_ste_run1_130114","NP",3,1,"charge",2800,1,789,2,2,646290,655089,655878,92274,36,554.016,562.815,563.604,28.409,256.409,484.409,228.03,456.03,684.03
"pro","ste",1,"130114","pro_ste_run1_130114","NN",2,2,"moose",2800,1,932,1,1,659488,668287,669219,92274,37,567.214,576.013,576.945,28.409,256.409,484.409,228.03,456.03,684.03
"pro","ste",1,"130114","pro_ste_run1_130114","RN",5,1,"chest",1600,0,0,NA,1,672686,681485,0,92274,38,580.412,589.211,-92.274,28.409,256.409,484.409,228.03,456.03,684.03
"pro","ste",1,"130114","pro_ste_run1_130114","NP",2,2,"paste",1600,1,766,2,2,684684,693483,694249,92274,39,592.41,601.209,601.975,28.409,256.409,484.409,228.03,456.03,684.03
"pro","ste",1,"130114","pro_ste_run1_130114","NN",3,2,"donor",4000,1,988,1,1,696683,705481,706469,92274,40,604.409,613.207,614.195,28.409,256.409,484.409,228.03,456.03,684.03
"pro","ste",1,"130114","pro_ste_run1_130114","NP",5,3,"advice",4000,1,1287,2,2,711097,719896,721183,92274,41,618.823,627.622,628.909,28.409,256.409,484.409,228.03,456.03,684.03
"pro","ste",1,"130114","pro_ste_run1_130114","NN",2,2,"work",2800,1,779,1,1,725495,734294,735073,92274,42,633.221,642.02,642.799,28.409,256.409,484.409,228.03,456.03,684.03
"pro","ste",1,"130114","pro_ste_run1_130114","RN",2,1,"bags",4000,1,1002,1,1,738693,747492,748494,92274,43,646.419,655.218,656.22,28.409,256.409,484.409,228.03,456.03,684.03
"pro","ste",1,"130114","pro_ste_run1_130114","NN",5,2,"group",1600,1,835,1,1,753091,761890,762725,92274,44,660.817,669.616,670.451,28.409,256.409,484.409,228.03,456.03,684.03
"pro","ste",1,"130114","pro_ste_run1_130114","NP",2,2,"guys",1600,0,0,NA,2,765089,773888,0,92274,45,672.815,681.614,-92.274,28.409,256.409,484.409,228.03,456.03,684.03
"pro","ste",2,"130114","pro_ste_run2_130114","NN",4,1,"campus",1600,1,1085,1,1,65982,74781,75866,35169,1,30.813,39.612,40.697,28.414,256.414,484.414,228.018,456.018,684.018
"pro","ste",2,"130114","pro_ste_run2_130114","NP",5,3,"snap",2800,1,1060,2,2,77981,86779,87839,35169,2,42.812,51.61,52.67,28.414,256.414,484.414,228.018,456.018,684.018
"pro","ste",2,"130114","pro_ste_run2_130114","NP",4,1,"belief",4000,1,1423,2,2,91179,99977,101400,35169,3,56.01,64.808,66.231,28.414,256.414,484.414,228.018,456.018,684.018
"pro","ste",2,"130114","pro_ste_run2_130114","NP",3,1,"drip",2800,1,916,2,2,105577,114375,115291,35169,4,70.408,79.206,80.122,28.414,256.414,484.414,228.018,456.018,684.018
"pro","ste",2,"130114","pro_ste_run2_130114","NP",2,2,"bottle",2800,1,868,2,2,118775,127590,128458,35169,5,83.606,92.421,93.289,28.414,256.414,484.414,228.018,456.018,684.018
"pro","ste",2,"130114","pro_ste_run2_130114","RN",5,1,"level",1600,1,924,1,1,131989,140788,141712,35169,6,96.82,105.619,106.543,28.414,256.414,484.414,228.018,456.018,684.018
"pro","ste",2,"130114","pro_ste_run2_130114","NN",2,2,"spice",2800,1,1272,1,1,143988,152786,154058,35169,7,108.819,117.617,118.889,28.414,256.414,484.414,228.018,456.018,684.018
"pro","ste",2,"130114","pro_ste_run2_130114","NN",2,2,"coal",1600,1,1403,1,1,157186,165985,167388,35169,8,122.017,130.816,132.219,28.414,256.414,484.414,228.018,456.018,684.018
"pro","ste",2,"130114","pro_ste_run2_130114","NN",3,1,"film",4000,1,1270,1,1,169184,177983,179253,35169,9,134.015,142.814,144.084,28.414,256.414,484.414,228.018,456.018,684.018
"pro","ste",2,"130114","pro_ste_run2_130114","RN",3,1,"singer",1600,0,1261,2,1,183582,192381,193642,35169,10,148.413,157.212,158.473,28.414,256.414,484.414,228.018,456.018,684.018
"pro","ste",2,"130114","pro_ste_run2_130114","NN",5,2,"herd",4000,1,1117,1,1,195580,204379,205496,35169,11,160.411,169.21,170.327,28.414,256.414,484.414,228.018,456.018,684.018
"pro","ste",2,"130114","pro_ste_run2_130114","NP",5,3,"flight",4000,1,937,2,2,209978,218777,219714,35169,12,174.809,183.608,184.545,28.414,256.414,484.414,228.018,456.018,684.018
"pro","ste",2,"130114","pro_ste_run2_130114","NP",2,2,"quote",1600,1,1911,2,2,224376,233175,235086,35169,13,189.207,198.006,199.917,28.414,256.414,484.414,228.018,456.018,684.018
"pro","ste",2,"130114","pro_ste_run2_130114","NN",5,2,"fury",2800,1,763,1,1,236374,245190,245953,35169,14,201.205,210.021,210.784,28.414,256.414,484.414,228.018,456.018,684.018
"pro","ste",2,"130114","pro_ste_run2_130114","NP",5,3,"stroke",4000,1,1308,2,2,249589,258388,259696,35169,15,214.42,223.219,224.527,28.414,256.414,484.414,228.018,456.018,684.018
"pro","ste",2,"130114","pro_ste_run2_130114","NP",3,2,"gold",2800,1,822,2,2,293982,302781,303603,35169,16,258.813,267.612,268.434,28.414,256.414,484.414,228.018,456.018,684.018
"pro","ste",2,"130114","pro_ste_run2_130114","NP",3,2,"sailor",1600,1,871,2,2,307181,315979,316850,35169,17,272.012,280.81,281.681,28.414,256.414,484.414,228.018,456.018,684.018
"pro","ste",2,"130114","pro_ste_run2_130114","NP",5,3,"thing",2800,0,0,NA,2,319179,327978,0,35169,18,284.01,292.809,-35.169,28.414,256.414,484.414,228.018,456.018,684.018
"pro","ste",2,"130114","pro_ste_run2_130114","NN",5,2,"kids",1600,1,1331,1,1,332377,341176,342507,35169,19,297.208,306.007,307.338,28.414,256.414,484.414,228.018,456.018,684.018
"pro","ste",2,"130114","pro_ste_run2_130114","RN",2,1,"onion",2800,1,1187,1,1,344375,353174,354361,35169,20,309.206,318.005,319.192,28.414,256.414,484.414,228.018,456.018,684.018
"pro","ste",2,"130114","pro_ste_run2_130114","NP",5,3,"grill",4000,0,0,NA,2,357590,366389,0,35169,21,322.421,331.22,-35.169,28.414,256.414,484.414,228.018,456.018,684.018
"pro","ste",2,"130114","pro_ste_run2_130114","NN",4,1,"barber",2800,0,0,NA,1,371988,380786,0,35169,22,336.819,345.617,-35.169,28.414,256.414,484.414,228.018,456.018,684.018
"pro","ste",2,"130114","pro_ste_run2_130114","NN",2,2,"flaw",1600,1,983,1,1,385186,393985,394968,35169,23,350.017,358.816,359.799,28.414,256.414,484.414,228.018,456.018,684.018
"pro","ste",2,"130114","pro_ste_run2_130114","NN",3,1,"grain",4000,1,644,1,1,397184,405983,406627,35169,24,362.015,370.814,371.458,28.414,256.414,484.414,228.018,456.018,684.018
"pro","ste",2,"130114","pro_ste_run2_130114","NP",2,2,"nerve",1600,1,985,2,2,411582,420381,421366,35169,25,376.413,385.212,386.197,28.414,256.414,484.414,228.018,456.018,684.018
"pro","ste",2,"130114","pro_ste_run2_130114","NP",5,3,"class",4000,0,848,1,2,423580,432379,433227,35169,26,388.411,397.21,398.058,28.414,256.414,484.414,228.018,456.018,684.018
"pro","ste",2,"130114","pro_ste_run2_130114","NN",2,2,"tally",1600,1,1192,1,1,437978,446777,447969,35169,27,402.809,411.608,412.8,28.414,256.414,484.414,228.018,456.018,684.018
"pro","ste",2,"130114","pro_ste_run2_130114","NP",2,2,"photo",4000,1,747,2,2,449976,458775,459522,35169,28,414.807,423.606,424.353,28.414,256.414,484.414,228.018,456.018,684.018
"pro","ste",2,"130114","pro_ste_run2_130114","NN",5,2,"zebra",4000,0,0,NA,1,464374,473190,0,35169,29,429.205,438.021,-35.169,28.414,256.414,484.414,228.018,456.018,684.018
"pro","ste",2,"130114","pro_ste_run2_130114","RN",5,1,"pupil",2800,1,951,1,1,478789,487588,488539,35169,30,443.62,452.419,453.37,28.414,256.414,484.414,228.018,456.018,684.018
"pro","ste",2,"130114","pro_ste_run2_130114","NN",2,1,"list",1600,1,517,1,1,521983,530781,531298,35169,31,486.814,495.612,496.129,28.414,256.414,484.414,228.018,456.018,684.018
"pro","ste",2,"130114","pro_ste_run2_130114","NP",3,1,"tissue",4000,0,798,1,2,533981,542779,543577,35169,32,498.812,507.61,508.408,28.414,256.414,484.414,228.018,456.018,684.018
"pro","ste",2,"130114","pro_ste_run2_130114","NP",2,3,"point",4000,1,712,2,2,548379,557177,557889,35169,33,513.21,522.008,522.72,28.414,256.414,484.414,228.018,456.018,684.018
"pro","ste",2,"130114","pro_ste_run2_130114","NN",5,2,"output",4000,1,1103,1,1,562777,571575,572678,35169,34,527.608,536.406,537.509,28.414,256.414,484.414,228.018,456.018,684.018
"pro","ste",2,"130114","pro_ste_run2_130114","NP",5,3,"finger",1600,0,713,1,2,577174,585990,586703,35169,35,542.005,550.821,551.534,28.414,256.414,484.414,228.018,456.018,684.018
"pro","ste",2,"130114","pro_ste_run2_130114","NP",2,3,"grace",4000,1,774,2,2,589189,597988,598762,35169,36,554.02,562.819,563.593,28.414,256.414,484.414,228.018,456.018,684.018
"pro","ste",2,"130114","pro_ste_run2_130114","NN",3,2,"filter",2800,1,1179,1,1,603587,612386,613565,35169,37,568.418,577.217,578.396,28.414,256.414,484.414,228.018,456.018,684.018
"pro","ste",2,"130114","pro_ste_run2_130114","NP",5,3,"click",1600,1,984,2,2,616785,625584,626568,35169,38,581.616,590.415,591.399,28.414,256.414,484.414,228.018,456.018,684.018
"pro","ste",2,"130114","pro_ste_run2_130114","NN",3,2,"cows",2800,1,859,1,1,628784,637582,638441,35169,39,593.615,602.413,603.272,28.414,256.414,484.414,228.018,456.018,684.018
"pro","ste",2,"130114","pro_ste_run2_130114","RN",5,1,"need",2800,1,1756,1,1,641982,650780,652536,35169,40,606.813,615.611,617.367,28.414,256.414,484.414,228.018,456.018,684.018
"pro","ste",2,"130114","pro_ste_run2_130114","NP",5,3,"void",4000,0,0,NA,2,655180,663978,0,35169,41,620.011,628.809,-35.169,28.414,256.414,484.414,228.018,456.018,684.018
"pro","ste",2,"130114","pro_ste_run2_130114","NP",2,3,"talent",2800,1,889,2,2,669578,678376,679265,35169,42,634.409,643.207,644.096,28.414,256.414,484.414,228.018,456.018,684.018
"pro","ste",2,"130114","pro_ste_run2_130114","NP",4,1,"clown",2800,1,1188,2,2,682776,691574,692762,35169,43,647.607,656.405,657.593,28.414,256.414,484.414,228.018,456.018,684.018
"pro","ste",2,"130114","pro_ste_run2_130114","NN",5,2,"signal",1600,1,806,1,1,695974,704789,705595,35169,44,660.805,669.62,670.426,28.414,256.414,484.414,228.018,456.018,684.018
"pro","ste",2,"130114","pro_ste_run2_130114","NN",4,1,"grip",1600,1,1004,1,1,707989,716787,717791,35169,45,672.82,681.618,682.622,28.414,256.414,484.414,228.018,456.018,684.018
"rea","ste",1,"130114","rea_ste_run1_130114","NP",8,2,"brow",4000,1,1773,2,2,113873,122671,124444,83052,1,30.821,39.619,41.392,28.421,256.406,484.408,228.027,456.029,684.014
"rea","ste",1,"130114","rea_ste_run1_130114","RN",5,2,"jets",4000,1,1602,1,1,128271,137070,138672,83052,2,45.219,54.018,55.62,28.421,256.406,484.408,228.027,456.029,684.014
"rea","ste",1,"130114","rea_ste_run1_130114","NP",5,3,"touch",2800,1,903,2,2,142669,151468,152371,83052,3,59.617,68.416,69.319,28.421,256.406,484.408,228.027,456.029,684.014
"rea","ste",1,"130114","rea_ste_run1_130114","NP",5,3,"pound",2800,1,1199,2,2,155867,164666,165865,83052,4,72.815,81.614,82.813,28.421,256.406,484.408,228.027,456.029,684.014
"rea","ste",1,"130114","rea_ste_run1_130114","RN",7,1,"rivals",4000,1,1299,1,1,169065,177864,179163,83052,5,86.013,94.812,96.111,28.421,256.406,484.408,228.027,456.029,684.014
"rea","ste",1,"130114","rea_ste_run1_130114","NP",6,1,"name",1600,1,965,2,2,183463,192262,193227,83052,6,100.411,109.21,110.175,28.421,256.406,484.408,228.027,456.029,684.014
"rea","ste",1,"130114","rea_ste_run1_130114","NP",7,2,"world",1600,1,1163,2,2,195461,204260,205423,83052,7,112.409,121.208,122.371,28.421,256.406,484.408,228.027,456.029,684.014
"rea","ste",1,"130114","rea_ste_run1_130114","RN",8,2,"marker",2800,1,1638,1,1,207460,216259,217897,83052,8,124.408,133.207,134.845,28.421,256.406,484.408,228.027,456.029,684.014
"rea","ste",1,"130114","rea_ste_run1_130114","NP",5,3,"wife",2800,1,953,2,2,220658,229457,230410,83052,9,137.606,146.405,147.358,28.421,256.406,484.408,228.027,456.029,684.014
"rea","ste",1,"130114","rea_ste_run1_130114","RN",5,2,"paper",1600,1,857,1,1,233873,242672,243529,83052,10,150.821,159.62,160.477,28.421,256.406,484.408,228.027,456.029,684.014
"rea","ste",1,"130114","rea_ste_run1_130114","NN",5,1,"chin",1600,1,1093,1,1,245871,254670,255763,83052,11,162.819,171.618,172.711,28.421,256.406,484.408,228.027,456.029,684.014
"rea","ste",1,"130114","rea_ste_run1_130114","NP",7,2,"grill",4000,1,1885,2,2,257870,266668,268553,83052,12,174.818,183.616,185.501,28.421,256.406,484.408,228.027,456.029,684.014
"rea","ste",1,"130114","rea_ste_run1_130114","RN",8,2,"rhyme",4000,1,1190,1,1,272268,281066,282256,83052,13,189.216,198.014,199.204,28.421,256.406,484.408,228.027,456.029,684.014
"rea","ste",1,"130114","rea_ste_run1_130114","NP",8,2,"goods",2800,1,970,2,2,286666,295464,296434,83052,14,203.614,212.412,213.382,28.421,256.406,484.408,228.027,456.029,684.014
"rea","ste",1,"130114","rea_ste_run1_130114","RN",6,1,"reign",1600,1,1090,1,1,299864,308663,309753,83052,15,216.812,225.611,226.701,28.421,256.406,484.408,228.027,456.029,684.014
"rea","ste",1,"130114","rea_ste_run1_130114","NP",5,3,"harbor",4000,1,919,2,2,341858,350657,351576,83052,16,258.806,267.605,268.524,28.421,256.406,484.408,228.027,456.029,684.014
"rea","ste",1,"130114","rea_ste_run1_130114","RN",7,1,"boat",2800,1,962,1,1,356273,365072,366034,83052,17,273.221,282.02,282.982,28.421,256.406,484.408,228.027,456.029,684.014
"rea","ste",1,"130114","rea_ste_run1_130114","RN",8,2,"hour",2800,1,1099,1,1,369471,378270,379369,83052,18,286.419,295.218,296.317,28.421,256.406,484.408,228.027,456.029,684.014
"rea","ste",1,"130114","rea_ste_run1_130114","NP",8,3,"tongue",4000,1,1032,2,2,382669,391468,392500,83052,19,299.617,308.416,309.448,28.421,256.406,484.408,228.027,456.029,684.014
"rea","ste",1,"130114","rea_ste_run1_130114","RN",6,1,"beam",1600,1,1172,1,1,397067,405866,407038,83052,20,314.015,322.814,323.986,28.421,256.406,484.408,228.027,456.029,684.014
"rea","ste",1,"130114","rea_ste_run1_130114","NN",5,1,"ruler",4000,1,839,1,1,409066,417864,418703,83052,21,326.014,334.812,335.651,28.421,256.406,484.408,228.027,456.029,684.014
"rea","ste",1,"130114","rea_ste_run1_130114","NP",5,3,"dryer",1600,1,1364,2,2,423464,432262,433626,83052,22,340.412,349.21,350.574,28.421,256.406,484.408,228.027,456.029,684.014
"rea","ste",1,"130114","rea_ste_run1_130114","RN",8,2,"jazz",1600,1,1817,1,1,435462,444261,446078,83052,23,352.41,361.209,363.026,28.421,256.406,484.408,228.027,456.029,684.014
"rea","ste",1,"130114","rea_ste_run1_130114","RN",5,2,"blaze",4000,1,903,1,1,447460,456259,457162,83052,24,364.408,373.207,374.11,28.421,256.406,484.408,228.027,456.029,684.014
"rea","ste",1,"130114","rea_ste_run1_130114","NP",8,3,"visit",4000,1,1567,2,2,461858,470657,472224,83052,25,378.806,387.605,389.172,28.421,256.406,484.408,228.027,456.029,684.014
"rea","ste",1,"130114","rea_ste_run1_130114","RN",5,2,"ideals",2800,1,1156,1,1,476273,485072,486228,83052,26,393.221,402.02,403.176,28.421,256.406,484.408,228.027,456.029,684.014
"rea","ste",1,"130114","rea_ste_run1_130114","NP",5,3,"plate",2800,1,1290,2,2,489471,498270,499560,83052,27,406.419,415.218,416.508,28.421,256.406,484.408,228.027,456.029,684.014
"rea","ste",1,"130114","rea_ste_run1_130114","NP",7,2,"spark",1600,1,838,2,2,502669,511468,512306,83052,28,419.617,428.416,429.254,28.421,256.406,484.408,228.027,456.029,684.014
"rea","ste",1,"130114","rea_ste_run1_130114","NP",8,3,"males",1600,1,1230,2,2,514668,523466,524696,83052,29,431.616,440.414,441.644,28.421,256.406,484.408,228.027,456.029,684.014
"rea","ste",1,"130114","rea_ste_run1_130114","NP",7,2,"setup",2800,1,911,2,2,526666,535465,536376,83052,30,443.614,452.413,453.324,28.421,256.406,484.408,228.027,456.029,684.014
"rea","ste",1,"130114","rea_ste_run1_130114","NP",5,3,"answer",4000,1,816,2,2,569860,578659,579475,83052,31,486.808,495.607,496.423,28.421,256.406,484.408,228.027,456.029,684.014
"rea","ste",1,"130114","rea_ste_run1_130114","RN",5,2,"hawk",1600,1,999,1,1,584258,593057,594056,83052,32,501.206,510.005,511.004,28.421,256.406,484.408,228.027,456.029,684.014
"rea","ste",1,"130114","rea_ste_run1_130114","NN",8,1,"train",1600,1,696,1,1,596273,605072,605768,83052,33,513.221,522.02,522.716,28.421,256.406,484.408,228.027,456.029,684.014
"rea","ste",1,"130114","rea_ste_run1_130114","RN",8,2,"poppy",4000,0,1260,2,1,608271,617070,618330,83052,34,525.219,534.018,535.278,28.421,256.406,484.408,228.027,456.029,684.014
"rea","ste",1,"130114","rea_ste_run1_130114","RN",7,2,"wave",2800,1,1384,1,1,622670,631468,632852,83052,35,539.618,548.416,549.8,28.421,256.406,484.408,228.027,456.029,684.014
"rea","ste",1,"130114","rea_ste_run1_130114","RN",8,2,"days",2800,1,832,1,1,635868,644666,645498,83052,36,552.816,561.614,562.446,28.421,256.406,484.408,228.027,456.029,684.014
"rea","ste",1,"130114","rea_ste_run1_130114","RN",7,2,"need",2800,1,946,1,1,649066,657865,658811,83052,37,566.014,574.813,575.759,28.421,256.406,484.408,228.027,456.029,684.014
"rea","ste",1,"130114","rea_ste_run1_130114","NP",5,3,"hose",1600,1,1085,2,2,662264,671063,672148,83052,38,579.212,588.011,589.096,28.421,256.406,484.408,228.027,456.029,684.014
"rea","ste",1,"130114","rea_ste_run1_130114","RN",5,2,"drip",1600,0,0,NA,1,674262,683061,0,83052,39,591.21,600.009,-83.052,28.421,256.406,484.408,228.027,456.029,684.014
"rea","ste",1,"130114","rea_ste_run1_130114","NN",5,1,"finger",4000,1,890,1,1,686261,695060,695950,83052,40,603.209,612.008,612.898,28.421,256.406,484.408,228.027,456.029,684.014
"rea","ste",1,"130114","rea_ste_run1_130114","NP",8,2,"charge",2800,1,918,2,2,700659,709458,710376,83052,41,617.607,626.406,627.324,28.421,256.406,484.408,228.027,456.029,684.014
"rea","ste",1,"130114","rea_ste_run1_130114","NP",7,1,"drum",1600,1,1019,2,2,713857,722672,723691,83052,42,630.805,639.62,640.639,28.421,256.406,484.408,228.027,456.029,684.014
"rea","ste",1,"130114","rea_ste_run1_130114","NP",5,3,"spell",4000,1,993,2,2,725872,734671,735664,83052,43,642.82,651.619,652.612,28.421,256.406,484.408,228.027,456.029,684.014
"rea","ste",1,"130114","rea_ste_run1_130114","NP",6,1,"people",4000,1,997,2,2,740270,749069,750066,83052,44,657.218,666.017,667.014,28.421,256.406,484.408,228.027,456.029,684.014
"rea","ste",1,"130114","rea_ste_run1_130114","NP",8,2,"rattle",2800,0,1062,1,2,754668,763467,764529,83052,45,671.616,680.415,681.477,28.421,256.406,484.408,228.027,456.029,684.014
"rea","ste",2,"130114","rea_ste_run2_130114","NN",5,1,"food",2800,1,971,1,1,61133,69932,70903,30327,1,30.806,39.605,40.576,28.406,256.408,484.41,228.029,456.014,684.016
"rea","ste",2,"130114","rea_ste_run2_130114","NP",8,2,"rider",1600,1,1006,2,2,74331,83147,84153,30327,2,44.004,52.82,53.826,28.406,256.408,484.41,228.029,456.014,684.016
"rea","ste",2,"130114","rea_ste_run2_130114","RN",8,2,"slug",1600,0,981,2,1,86346,95145,96126,30327,3,56.019,64.818,65.799,28.406,256.408,484.41,228.029,456.014,684.016
"rea","ste",2,"130114","rea_ste_run2_130114","RN",8,2,"witch",4000,1,1493,1,1,98345,107143,108636,30327,4,68.018,76.816,78.309,28.406,256.408,484.41,228.029,456.014,684.016
"rea","ste",2,"130114","rea_ste_run2_130114","RN",5,2,"stain",1600,1,975,1,1,112743,121541,122516,30327,5,82.416,91.214,92.189,28.406,256.408,484.41,228.029,456.014,684.016
"rea","ste",2,"130114","rea_ste_run2_130114","NN",7,1,"herd",4000,1,580,1,1,124741,133540,134120,30327,6,94.414,103.213,103.793,28.406,256.408,484.41,228.029,456.014,684.016
"rea","ste",2,"130114","rea_ste_run2_130114","NP",7,1,"flag",4000,1,1187,2,2,139139,147938,149125,30327,7,108.812,117.611,118.798,28.406,256.408,484.41,228.029,456.014,684.016
"rea","ste",2,"130114","rea_ste_run2_130114","RN",6,1,"maid",4000,1,1120,1,1,153537,162336,163456,30327,8,123.21,132.009,133.129,28.406,256.408,484.41,228.029,456.014,684.016
"rea","ste",2,"130114","rea_ste_run2_130114","NP",6,1,"wall",2800,0,1768,1,2,167935,176734,178502,30327,9,137.608,146.407,148.175,28.406,256.408,484.41,228.029,456.014,684.016
"rea","ste",2,"130114","rea_ste_run2_130114","NP",5,3,"zipper",2800,1,665,2,2,181133,189932,190597,30327,10,150.806,159.605,160.27,28.406,256.408,484.41,228.029,456.014,684.016
"rea","ste",2,"130114","rea_ste_run2_130114","RN",5,2,"pair",1600,0,1559,2,1,194331,203147,204706,30327,11,164.004,172.82,174.379,28.406,256.408,484.41,228.029,456.014,684.016
"rea","ste",2,"130114","rea_ste_run2_130114","NP",8,2,"tree",2800,1,800,2,2,206346,215145,215945,30327,12,176.019,184.818,185.618,28.406,256.408,484.41,228.029,456.014,684.016
"rea","ste",2,"130114","rea_ste_run2_130114","NP",5,3,"photo",4000,1,934,2,2,219545,228343,229277,30327,13,189.218,198.016,198.95,28.406,256.408,484.41,228.029,456.014,684.016
"rea","ste",2,"130114","rea_ste_run2_130114","NP",5,3,"girl",2800,1,851,2,2,233943,242741,243592,30327,14,203.616,212.414,213.265,28.406,256.408,484.41,228.029,456.014,684.016
"rea","ste",2,"130114","rea_ste_run2_130114","RN",7,1,"quart",1600,1,1144,1,1,247141,255940,257084,30327,15,216.814,225.613,226.757,28.406,256.408,484.41,228.029,456.014,684.016
"rea","ste",2,"130114","rea_ste_run2_130114","NN",8,1,"rest",4000,1,937,1,1,289135,297934,298871,30327,16,258.808,267.607,268.544,28.406,256.408,484.41,228.029,456.014,684.016
"rea","ste",2,"130114","rea_ste_run2_130114","NP",7,2,"singer",1600,1,1195,2,2,303533,312332,313527,30327,17,273.206,282.005,283.2,28.406,256.408,484.41,228.029,456.014,684.016
"rea","ste",2,"130114","rea_ste_run2_130114","RN",8,2,"prince",4000,1,1180,1,1,315531,324347,325527,30327,18,285.204,294.02,295.2,28.406,256.408,484.41,228.029,456.014,684.016
"rea","ste",2,"130114","rea_ste_run2_130114","NP",5,3,"pals",4000,0,0,NA,2,329946,338745,0,30327,19,299.619,308.418,-30.327,28.406,256.408,484.41,228.029,456.014,684.016
"rea","ste",2,"130114","rea_ste_run2_130114","NP",5,3,"cotton",1600,1,524,2,2,344344,353143,353667,30327,20,314.017,322.816,323.34,28.406,256.408,484.41,228.029,456.014,684.016
"rea","ste",2,"130114","rea_ste_run2_130114","NP",5,3,"chest",2800,1,723,2,2,356343,365141,365864,30327,21,326.016,334.814,335.537,28.406,256.408,484.41,228.029,456.014,684.016
"rea","ste",2,"130114","rea_ste_run2_130114","NP",8,2,"dawn",2800,1,1037,2,2,369541,378340,379377,30327,22,339.214,348.013,349.05,28.406,256.408,484.41,228.029,456.014,684.016
"rea","ste",2,"130114","rea_ste_run2_130114","RN",5,2,"praise",4000,1,742,1,1,382739,391538,392280,30327,23,352.412,361.211,361.953,28.406,256.408,484.41,228.029,456.014,684.016
"rea","ste",2,"130114","rea_ste_run2_130114","RN",5,2,"walker",1600,1,988,1,1,397137,405936,406924,30327,24,366.81,375.609,376.597,28.406,256.408,484.41,228.029,456.014,684.016
"rea","ste",2,"130114","rea_ste_run2_130114","NN",5,1,"grass",1600,1,801,1,1,409135,417934,418735,30327,25,378.808,387.607,388.408,28.406,256.408,484.41,228.029,456.014,684.016
"rea","ste",2,"130114","rea_ste_run2_130114","NP",8,2,"charm",4000,1,945,2,2,421134,429932,430877,30327,26,390.807,399.605,400.55,28.406,256.408,484.41,228.029,456.014,684.016
"rea","ste",2,"130114","rea_ste_run2_130114","RN",8,2,"barber",2800,1,813,1,1,435532,444347,445160,30327,27,405.205,414.02,414.833,28.406,256.408,484.41,228.029,456.014,684.016
"rea","ste",2,"130114","rea_ste_run2_130114","RN",6,1,"motor",1600,1,703,1,1,448747,457545,458248,30327,28,418.42,427.218,427.921,28.406,256.408,484.41,228.029,456.014,684.016
"rea","ste",2,"130114","rea_ste_run2_130114","RN",7,1,"east",2800,0,852,2,1,460745,469544,470396,30327,29,430.418,439.217,440.069,28.406,256.408,484.41,228.029,456.014,684.016
"rea","ste",2,"130114","rea_ste_run2_130114","NP",7,2,"oats",2800,1,721,2,2,473943,482742,483463,30327,30,443.616,452.415,453.136,28.406,256.408,484.41,228.029,456.014,684.016
"rea","ste",2,"130114","rea_ste_run2_130114","NP",8,3,"slip",1600,1,722,2,2,517137,525936,526658,30327,31,486.81,495.609,496.331,28.406,256.408,484.41,228.029,456.014,684.016
"rea","ste",2,"130114","rea_ste_run2_130114","RN",7,2,"note",4000,1,801,1,1,529135,537934,538735,30327,32,498.808,507.607,508.408,28.406,256.408,484.41,228.029,456.014,684.016
"rea","ste",2,"130114","rea_ste_run2_130114","RN",5,2,"tile",2800,1,899,1,1,543534,552332,553231,30327,33,513.207,522.005,522.904,28.406,256.408,484.41,228.029,456.014,684.016
"rea","ste",2,"130114","rea_ste_run2_130114","NP",5,3,"winner",2800,1,1488,2,2,556732,565547,567035,30327,34,526.405,535.22,536.708,28.406,256.408,484.41,228.029,456.014,684.016
"rea","ste",2,"130114","rea_ste_run2_130114","NN",5,1,"flick",4000,1,925,1,1,569947,578745,579670,30327,35,539.62,548.418,549.343,28.406,256.408,484.41,228.029,456.014,684.016
"rea","ste",2,"130114","rea_ste_run2_130114","NP",8,3,"glove",1600,1,987,2,2,584345,593143,594130,30327,36,554.018,562.816,563.803,28.406,256.408,484.41,228.029,456.014,684.016
"rea","ste",2,"130114","rea_ste_run2_130114","RN",5,2,"list",1600,0,1555,2,1,596343,605142,606697,30327,37,566.016,574.815,576.37,28.406,256.408,484.41,228.029,456.014,684.016
"rea","ste",2,"130114","rea_ste_run2_130114","NP",5,3,"beach",1600,1,845,2,2,608341,617140,617985,30327,38,578.014,586.813,587.658,28.406,256.408,484.41,228.029,456.014,684.016
"rea","ste",2,"130114","rea_ste_run2_130114","NP",5,3,"bugs",1600,1,719,2,2,620340,629138,629857,30327,39,590.013,598.811,599.53,28.406,256.408,484.41,228.029,456.014,684.016
"rea","ste",2,"130114","rea_ste_run2_130114","NP",7,1,"suit",2800,0,932,1,2,632338,641137,642069,30327,40,602.011,610.81,611.742,28.406,256.408,484.41,228.029,456.014,684.016
"rea","ste",2,"130114","rea_ste_run2_130114","RN",8,1,"dock",2800,1,960,1,1,645536,654335,655295,30327,41,615.209,624.008,624.968,28.406,256.408,484.41,228.029,456.014,684.016
"rea","ste",2,"130114","rea_ste_run2_130114","RN",6,1,"folder",4000,0,1649,2,1,658734,667533,669182,30327,42,628.407,637.206,638.855,28.406,256.408,484.41,228.029,456.014,684.016
"rea","ste",2,"130114","rea_ste_run2_130114","NP",8,3,"owner",4000,0,804,1,2,673132,681931,682735,30327,43,642.805,651.604,652.408,28.406,256.408,484.41,228.029,456.014,684.016
"rea","ste",2,"130114","rea_ste_run2_130114","NP",6,1,"washer",2800,1,1040,2,2,687547,696346,697386,30327,44,657.22,666.019,667.059,28.406,256.408,484.41,228.029,456.014,684.016
"rea","ste",2,"130114","rea_ste_run2_130114","RN",7,2,"void",4000,1,1089,1,1,700745,709544,710633,30327,45,670.418,679.217,680.306,28.406,256.408,484.41,228.029,456.014,684.016
"bas","ste",1,"130518","bas_ste_run1_130518","NP",5,3,"syrup",1600,1,1230,2,2,121771,130570,131800,90964,1,30.807,39.606,40.836,28.408,256.421,484.418,228.026,456.023,684.02
"bas","ste",1,"130518","bas_ste_run1_130518","NN",8,2,"scale",4000,1,1057,1,1,133786,142585,143642,90964,2,42.822,51.621,52.678,28.408,256.421,484.418,228.026,456.023,684.02
"bas","ste",1,"130518","bas_ste_run1_130518","NN",8,2,"doll",1600,1,1004,1,1,148184,156982,157986,90964,3,57.22,66.018,67.022,28.408,256.421,484.418,228.026,456.023,684.02
"bas","ste",1,"130518","bas_ste_run1_130518","NP",5,3,"threat",2800,1,1235,2,2,160182,168980,170215,90964,4,69.218,78.016,79.251,28.408,256.421,484.418,228.026,456.023,684.02
"bas","ste",1,"130518","bas_ste_run1_130518","NN",6,1,"parrot",2800,1,824,1,1,173380,182178,183002,90964,5,82.416,91.214,92.038,28.408,256.421,484.418,228.026,456.023,684.02
"bas","ste",1,"130518","bas_ste_run1_130518","NP",8,2,"chance",1600,1,939,2,2,186578,195376,196315,90964,6,95.614,104.412,105.351,28.408,256.421,484.418,228.026,456.023,684.02
"bas","ste",1,"130518","bas_ste_run1_130518","NN",5,2,"blur",4000,1,1111,1,1,198576,207374,208485,90964,7,107.612,116.41,117.521,28.408,256.421,484.418,228.026,456.023,684.02
"bas","ste",1,"130518","bas_ste_run1_130518","NP",7,2,"rash",2800,1,1060,2,2,212973,221772,222832,90964,8,122.009,130.808,131.868,28.408,256.421,484.418,228.026,456.023,684.02
"bas","ste",1,"130518","bas_ste_run1_130518","NN",5,2,"tube",4000,1,979,1,1,226171,234970,235949,90964,9,135.207,144.006,144.985,28.408,256.421,484.418,228.026,456.023,684.02
"bas","ste",1,"130518","bas_ste_run1_130518","NP",5,3,"share",4000,1,797,2,2,240586,249384,250181,90964,10,149.622,158.42,159.217,28.408,256.421,484.418,228.026,456.023,684.02
"bas","ste",1,"130518","bas_ste_run1_130518","NP",7,2,"wealth",2800,1,923,2,2,254983,263782,264705,90964,11,164.019,172.818,173.741,28.408,256.421,484.418,228.026,456.023,684.02
"bas","ste",1,"130518","bas_ste_run1_130518","NP",8,2,"bush",1600,0,1932,1,2,268181,276980,278912,90964,12,177.217,186.016,187.948,28.408,256.421,484.418,228.026,456.023,684.02
"bas","ste",1,"130518","bas_ste_run1_130518","NN",7,1,"straw",4000,1,820,1,1,280179,288978,289798,90964,13,189.215,198.014,198.834,28.408,256.421,484.418,228.026,456.023,684.02
"bas","ste",1,"130518","bas_ste_run1_130518","NP",6,1,"frost",2800,1,1222,2,2,294577,303376,304598,90964,14,203.613,212.412,213.634,28.408,256.421,484.418,228.026,456.023,684.02
"bas","ste",1,"130518","bas_ste_run1_130518","RN",5,1,"quart",1600,0,814,2,1,307775,316573,317387,90964,15,216.811,225.609,226.423,28.408,256.421,484.418,228.026,456.023,684.02
"bas","ste",1,"130518","bas_ste_run1_130518","NN",6,1,"taxi",4000,0,791,2,1,349785,358583,359374,90964,16,258.821,267.619,268.41,28.408,256.421,484.418,228.026,456.023,684.02
"bas","ste",1,"130518","bas_ste_run1_130518","NN",8,2,"liar",2800,0,0,NA,1,364183,372981,0,90964,17,273.219,282.017,-90.964,28.408,256.421,484.418,228.026,456.023,684.02
"bas","ste",1,"130518","bas_ste_run1_130518","NP",7,2,"need",2800,1,933,2,2,377380,386179,387112,90964,18,286.416,295.215,296.148,28.408,256.421,484.418,228.026,456.023,684.02
"bas","ste",1,"130518","bas_ste_run1_130518","NP",7,2,"bean",2800,1,838,2,2,390578,399377,400215,90964,19,299.614,308.413,309.251,28.408,256.421,484.418,228.026,456.023,684.02
"bas","ste",1,"130518","bas_ste_run1_130518","NP",8,3,"bees",2800,1,1219,2,2,403776,412575,413794,90964,20,312.812,321.611,322.83,28.408,256.421,484.418,228.026,456.023,684.02
"bas","ste",1,"130518","bas_ste_run1_130518","NP",5,3,"visit",1600,0,1315,1,2,416974,425773,427088,90964,21,326.01,334.809,336.124,28.408,256.421,484.418,228.026,456.023,684.02
"bas","ste",1,"130518","bas_ste_run1_130518","NN",7,1,"logic",1600,1,1426,1,1,428972,437771,439197,90964,22,338.008,346.807,348.233,28.408,256.421,484.418,228.026,456.023,684.02
"bas","ste",1,"130518","bas_ste_run1_130518","NP",5,3,"people",4000,1,1025,2,2,440970,449786,450811,90964,23,350.006,358.822,359.847,28.408,256.421,484.418,228.026,456.023,684.02
"bas","ste",1,"130518","bas_ste_run1_130518","NN",8,2,"heater",1600,1,853,1,1,455385,464183,465036,90964,24,364.421,373.219,374.072,28.408,256.421,484.418,228.026,456.023,684.02
"bas","ste",1,"130518","bas_ste_run1_130518","RN",5,1,"noise",4000,1,1043,1,1,467383,476181,477224,90964,25,376.419,385.217,386.26,28.408,256.421,484.418,228.026,456.023,684.02
