"session","task","run","subj","name","stimuli","number","letter","trial.type","cue","number.resp","letter.resp","award","switch","cue.color","target.color","target.color.orig","incentive","iti","acc","rt","resp","cresp","time.cue.onset.abs","time.target.onset.abs","time.rt.abs","time.scan.start","trial.num","time.cue.onset","time.target.onset","time.rt","time.block1.on","time.block2.on","time.block3.on","time.block1.off","time.block2.off","time.block3.off"
"bas","cue",1,"115825","bas_cue_run1_115825","5H","o","c","c","l",2,2,NA,NA,"red","black","black","nonincentive",4400,1,1838,2,2,130242,134742,136580,99136,1,31.106,35.606,37.444,28.406,274.405,520.419,246.023,492.021,738.019
"bas","cue",1,"115825","bas_cue_run1_115825","H5","o","c","c","l",2,2,NA,"stay","red","black","black","nonincentive",4400,1,1637,2,2,143441,147941,149578,99136,2,44.305,48.805,50.442,28.406,274.405,520.419,246.023,492.021,738.019
"bas","cue",1,"115825","bas_cue_run1_115825","4D","e","c","i","n",1,2,NA,"switch","red","black","green","nonincentive",3200,1,1123,1,1,156640,161140,162263,99136,3,57.504,62.004,63.127,28.406,274.405,520.419,246.023,492.021,738.019
"bas","cue",1,"115825","bas_cue_run1_115825","2A","e","v","c","n",1,1,NA,"stay","red","black","black","nonincentive",4400,1,906,1,1,168656,173156,174062,99136,4,69.52,74.02,74.926,28.406,274.405,520.419,246.023,492.021,738.019
"bas","cue",1,"115825","bas_cue_run1_115825","E3","o","v","i","l",2,1,NA,"switch","red","black","green","nonincentive",2000,1,1330,1,1,181855,186355,187685,99136,5,82.719,87.219,88.549,28.406,274.405,520.419,246.023,492.021,738.019
"bas","cue",1,"115825","bas_cue_run1_115825","A2","e","v","c","l",1,1,NA,"stay","red","black","black","nonincentive",2000,1,1899,1,1,192654,197154,199053,99136,6,93.518,98.018,99.917,28.406,274.405,520.419,246.023,492.021,738.019
"bas","cue",1,"115825","bas_cue_run1_115825","6I","e","v","c","n",1,1,NA,"switch","red","black","green","nonincentive",2000,1,1364,1,1,203453,207953,209317,99136,7,104.317,108.817,110.181,28.406,274.405,520.419,246.023,492.021,738.019
"bas","cue",1,"115825","bas_cue_run1_115825","B1","o","c","c","l",2,2,NA,"switch","red","black","black","nonincentive",3200,1,1271,2,2,214253,218752,220023,99136,8,115.117,119.616,120.887,28.406,274.405,520.419,246.023,492.021,738.019
"bas","cue",1,"115825","bas_cue_run1_115825","D4","e","c","i","l",1,2,NA,"stay","red","black","green","nonincentive",3200,1,2102,2,2,226252,230751,232853,99136,9,127.116,131.615,133.717,28.406,274.405,520.419,246.023,492.021,738.019
"bas","cue",1,"115825","bas_cue_run1_115825","B1","o","c","c","n",2,2,NA,"switch","red","black","black","nonincentive",2000,1,1080,2,2,238251,242750,243830,99136,10,139.115,143.614,144.694,28.406,274.405,520.419,246.023,492.021,738.019
"bas","cue",1,"115825","bas_cue_run1_115825","1B","o","c","c","n",2,2,NA,"stay","red","black","black","nonincentive",2000,1,1728,2,2,249050,253550,255278,99136,11,149.914,154.414,156.142,28.406,274.405,520.419,246.023,492.021,738.019
"bas","cue",1,"115825","bas_cue_run1_115825","A2","e","v","c","n",1,1,NA,"stay","red","black","black","nonincentive",2000,1,2158,1,1,259849,264349,266507,99136,12,160.713,165.213,167.371,28.406,274.405,520.419,246.023,492.021,738.019
"bas","cue",1,"115825","bas_cue_run1_115825","I6","e","v","c","n",1,1,NA,"stay","red","black","black","nonincentive",4400,1,1403,1,1,270648,275148,276551,99136,13,171.512,176.012,177.415,28.406,274.405,520.419,246.023,492.021,738.019
"bas","cue",1,"115825","bas_cue_run1_115825","B2","e","c","i","n",1,2,NA,"stay","red","black","black","nonincentive",3200,1,1757,1,1,283847,288347,290104,99136,14,184.711,189.211,190.968,28.406,274.405,520.419,246.023,492.021,738.019
"bas","cue",1,"115825","bas_cue_run1_115825","1A","o","v","i","l",2,1,NA,"switch","red","black","black","nonincentive",3200,1,1254,1,1,295846,300346,301600,99136,15,196.71,201.21,202.464,28.406,274.405,520.419,246.023,492.021,738.019
"bas","cue",1,"115825","bas_cue_run1_115825","1B","o","c","c","l",2,2,NA,"stay","red","black","black","nonincentive",4400,1,2069,2,2,307845,312345,314414,99136,16,208.709,213.209,215.278,28.406,274.405,520.419,246.023,492.021,738.019
"bas","cue",1,"115825","bas_cue_run1_115825","D4","e","c","i","n",1,2,NA,"switch","red","black","green","nonincentive",3200,1,1110,1,1,321044,325544,326654,99136,17,221.908,226.408,227.518,28.406,274.405,520.419,246.023,492.021,738.019
"bas","cue",1,"115825","bas_cue_run1_115825","I6","e","v","c","l",1,1,NA,"switch","red","black","green","nonincentive",4400,0,2066,2,1,333044,337543,339609,99136,18,233.908,238.407,240.473,28.406,274.405,520.419,246.023,492.021,738.019
"bas","cue",1,"115825","bas_cue_run1_115825","3E","o","v","i","l",2,1,NA,NA,"red","black","green","nonincentive",2000,1,1341,1,1,376240,380740,382081,99136,19,277.104,281.604,282.945,28.406,274.405,520.419,246.023,492.021,738.019
"bas","cue",1,"115825","bas_cue_run1_115825","D4","e","c","i","l",1,2,NA,"stay","red","black","green","nonincentive",2000,1,938,2,2,387056,391556,392494,99136,20,287.92,292.42,293.358,28.406,274.405,520.419,246.023,492.021,738.019
"bas","cue",1,"115825","bas_cue_run1_115825","E3","o","v","i","n",2,1,NA,"switch","red","black","green","nonincentive",3200,1,1496,2,2,397855,402355,403851,99136,21,298.719,303.219,304.715,28.406,274.405,520.419,246.023,492.021,738.019
"bas","cue",1,"115825","bas_cue_run1_115825","1B","o","c","c","l",2,2,NA,"switch","red","black","black","nonincentive",4400,0,1864,1,2,409854,414354,416218,99136,22,310.718,315.218,317.082,28.406,274.405,520.419,246.023,492.021,738.019
"bas","cue",1,"115825","bas_cue_run1_115825","5H","o","c","c","l",2,2,NA,"stay","red","black","black","nonincentive",3200,1,1935,2,2,423053,427553,429488,99136,23,323.917,328.417,330.352,28.406,274.405,520.419,246.023,492.021,738.019
"bas","cue",1,"115825","bas_cue_run1_115825","B1","o","c","c","l",2,2,NA,"stay","red","black","black","nonincentive",4400,1,1609,2,2,435053,439552,441161,99136,24,335.917,340.416,342.025,28.406,274.405,520.419,246.023,492.021,738.019
"bas","cue",1,"115825","bas_cue_run1_115825","A1","o","v","i","n",2,1,NA,"switch","red","black","black","nonincentive",3200,0,1920,1,2,448252,452751,454671,99136,25,349.116,353.615,355.535,28.406,274.405,520.419,246.023,492.021,738.019
"bas","cue",1,"115825","bas_cue_run1_115825","A2","e","v","c","n",1,1,NA,"stay","red","black","black","nonincentive",4400,0,2409,2,1,460251,464750,467159,99136,26,361.115,365.614,368.023,28.406,274.405,520.419,246.023,492.021,738.019
"bas","cue",1,"115825","bas_cue_run1_115825","2B","e","c","i","l",1,2,NA,"switch","red","black","black","nonincentive",2000,1,1521,2,2,473450,477949,479470,99136,27,374.314,378.813,380.334,28.406,274.405,520.419,246.023,492.021,738.019
"bas","cue",1,"115825","bas_cue_run1_115825","1B","o","c","c","n",2,2,NA,"switch","red","black","black","nonincentive",4400,1,1437,2,2,484249,488748,490185,99136,28,385.113,389.612,391.049,28.406,274.405,520.419,246.023,492.021,738.019
"bas","cue",1,"115825","bas_cue_run1_115825","3E","o","v","i","n",2,1,NA,"stay","red","black","green","nonincentive",2000,1,1693,2,2,497448,501947,503640,99136,29,398.312,402.811,404.504,28.406,274.405,520.419,246.023,492.021,738.019
"bas","cue",1,"115825","bas_cue_run1_115825","6I","e","v","c","n",1,1,NA,"stay","red","black","black","nonincentive",3200,1,885,1,1,508247,512747,513632,99136,30,409.111,413.611,414.496,28.406,274.405,520.419,246.023,492.021,738.019
"bas","cue",1,"115825","bas_cue_run1_115825","2A","e","v","c","n",1,1,NA,"stay","red","black","black","nonincentive",3200,0,1042,2,1,520246,524746,525788,99136,31,421.11,425.61,426.652,28.406,274.405,520.419,246.023,492.021,738.019
"bas","cue",1,"115825","bas_cue_run1_115825","I6","e","v","c","l",1,1,NA,"switch","red","black","black","nonincentive",3200,1,933,1,1,532245,536745,537678,99136,32,433.109,437.609,438.542,28.406,274.405,520.419,246.023,492.021,738.019
"bas","cue",1,"115825","bas_cue_run1_115825","2A","e","v","c","l",1,1,NA,"stay","red","black","black","nonincentive",2000,1,782,1,1,544244,548744,549526,99136,33,445.108,449.608,450.39,28.406,274.405,520.419,246.023,492.021,738.019
"bas","cue",1,"115825","bas_cue_run1_115825","5H","o","c","c","n",2,2,NA,"switch","red","black","green","nonincentive",2000,1,654,2,2,555043,559543,560197,99136,34,455.907,460.407,461.061,28.406,274.405,520.419,246.023,492.021,738.019
"bas","cue",1,"115825","bas_cue_run1_115825","E3","o","v","i","n",2,1,NA,"stay","red","black","green","nonincentive",4400,1,1783,2,2,565843,570342,572125,99136,35,466.707,471.206,472.989,28.406,274.405,520.419,246.023,492.021,738.019
"bas","cue",1,"115825","bas_cue_run1_115825","2A","e","v","c","l",1,1,NA,"switch","red","black","black","nonincentive",4400,1,2436,1,1,579042,583541,585977,99136,36,479.906,484.405,486.841,28.406,274.405,520.419,246.023,492.021,738.019
"bas","cue",1,"115825","bas_cue_run1_115825","4D","e","c","i","n",1,2,NA,NA,"red","black","green","nonincentive",4400,1,1759,1,1,622255,626755,628514,99136,37,523.119,527.619,529.378,28.406,274.405,520.419,246.023,492.021,738.019
"bas","cue",1,"115825","bas_cue_run1_115825","4D","e","c","i","l",1,2,NA,"switch","red","black","green","nonincentive",2000,1,1622,2,2,635454,639954,641576,99136,38,536.318,540.818,542.44,28.406,274.405,520.419,246.023,492.021,738.019
"bas","cue",1,"115825","bas_cue_run1_115825","A2","e","v","c","l",1,1,NA,"stay","red","black","black","nonincentive",3200,1,1828,1,1,646253,650753,652581,99136,39,547.117,551.617,553.445,28.406,274.405,520.419,246.023,492.021,738.019
"bas","cue",1,"115825","bas_cue_run1_115825","3E","o","v","i","l",2,1,NA,"stay","red","black","green","nonincentive",2000,1,2143,1,1,658252,662752,664895,99136,40,559.116,563.616,565.759,28.406,274.405,520.419,246.023,492.021,738.019
"bas","cue",1,"115825","bas_cue_run1_115825","H5","o","c","c","n",2,2,NA,"switch","red","black","black","nonincentive",3200,1,692,2,2,669051,673551,674243,99136,41,569.915,574.415,575.107,28.406,274.405,520.419,246.023,492.021,738.019
"bas","cue",1,"115825","bas_cue_run1_115825","1B","o","c","c","n",2,2,NA,"stay","red","black","black","nonincentive",4400,1,2014,2,2,681051,685550,687564,99136,42,581.915,586.414,588.428,28.406,274.405,520.419,246.023,492.021,738.019
"bas","cue",1,"115825","bas_cue_run1_115825","6I","e","v","c","n",1,1,NA,"stay","red","black","black","nonincentive",3200,0,1300,2,1,694250,698749,700049,99136,43,595.114,599.613,600.913,28.406,274.405,520.419,246.023,492.021,738.019
"bas","cue",1,"115825","bas_cue_run1_115825","2A","e","v","c","l",1,1,NA,"switch","red","black","black","nonincentive",4400,1,1553,1,1,706249,710748,712301,99136,44,607.113,611.612,613.165,28.406,274.405,520.419,246.023,492.021,738.019
"bas","cue",1,"115825","bas_cue_run1_115825","1A","o","v","i","n",2,1,NA,"switch","red","black","black","nonincentive",2000,1,2597,2,2,719448,723947,726544,99136,45,620.312,624.811,627.408,28.406,274.405,520.419,246.023,492.021,738.019
"bas","cue",1,"115825","bas_cue_run1_115825","2A","e","v","c","n",1,1,NA,"stay","red","black","black","nonincentive",3200,1,1425,1,1,730247,734747,736172,99136,46,631.111,635.611,637.036,28.406,274.405,520.419,246.023,492.021,738.019
"bas","cue",1,"115825","bas_cue_run1_115825","3E","o","v","i","n",2,1,NA,"stay","red","black","green","nonincentive",2000,1,1114,2,2,742246,746746,747860,99136,47,643.11,647.61,648.724,28.406,274.405,520.419,246.023,492.021,738.019
"bas","cue",1,"115825","bas_cue_run1_115825","H5","o","c","c","l",2,2,NA,"switch","red","black","green","nonincentive",4400,1,2147,2,2,753045,757545,759692,99136,48,653.909,658.409,660.556,28.406,274.405,520.419,246.023,492.021,738.019
"bas","cue",1,"115825","bas_cue_run1_115825","B1","o","c","c","n",2,2,NA,"switch","red","black","black","nonincentive",4400,1,1731,2,2,766244,770744,772475,99136,49,667.108,671.608,673.339,28.406,274.405,520.419,246.023,492.021,738.019
"bas","cue",1,"115825","bas_cue_run1_115825","6I","e","v","c","l",1,1,NA,"switch","red","black","black","nonincentive",3200,1,886,1,1,779443,783943,784829,99136,50,680.307,684.807,685.693,28.406,274.405,520.419,246.023,492.021,738.019
"bas","cue",1,"115825","bas_cue_run1_115825","1B","o","c","c","l",2,2,NA,"stay","red","black","black","nonincentive",4400,1,1170,2,2,791442,795942,797112,99136,51,692.306,696.806,697.976,28.406,274.405,520.419,246.023,492.021,738.019
"bas","cue",1,"115825","bas_cue_run1_115825","E3","o","v","i","l",2,1,NA,"stay","red","black","green","nonincentive",2000,1,1367,1,1,804641,809141,810508,99136,52,705.505,710.005,711.372,28.406,274.405,520.419,246.023,492.021,738.019
"bas","cue",1,"115825","bas_cue_run1_115825","B1","o","c","c","l",2,2,NA,"stay","red","black","black","nonincentive",2000,1,1616,2,2,815440,819940,821556,99136,53,716.304,720.804,722.42,28.406,274.405,520.419,246.023,492.021,738.019
"bas","cue",1,"115825","bas_cue_run1_115825","A2","e","v","c","n",1,1,NA,"switch","red","black","black","nonincentive",3200,1,1512,1,1,826240,830756,832268,99136,54,727.104,731.62,733.132,28.406,274.405,520.419,246.023,492.021,738.019
"bas","cue",2,"115825","bas_cue_run2_115825","6I","e","v","c","l",1,1,NA,NA,"red","black","green","nonincentive",2000,1,976,1,1,69682,74182,75158,38558,1,31.124,35.624,36.6,28.424,274.422,520.42,246.025,492.023,738.037
"bas","cue",2,"115825","bas_cue_run2_115825","E3","o","v","i","n",2,1,NA,"switch","red","black","green","nonincentive",3200,1,884,2,2,80481,84981,85865,38558,2,41.923,46.423,47.307,28.424,274.422,520.42,246.025,492.023,738.037
"bas","cue",2,"115825","bas_cue_run2_115825","1B","o","c","c","l",2,2,NA,"switch","red","black","black","nonincentive",4400,1,823,2,2,92480,96980,97803,38558,3,53.922,58.422,59.245,28.424,274.422,520.42,246.025,492.023,738.037
"bas","cue",2,"115825","bas_cue_run2_115825","2A","e","v","c","n",1,1,NA,"switch","red","black","black","nonincentive",2000,0,1209,2,1,105679,110179,111388,38558,4,67.121,71.621,72.83,28.424,274.422,520.42,246.025,492.023,738.037
"bas","cue",2,"115825","bas_cue_run2_115825","2A","e","v","c","l",1,1,NA,"switch","red","black","black","nonincentive",4400,1,1443,1,1,116479,120978,122421,38558,5,77.921,82.42,83.863,28.424,274.422,520.42,246.025,492.023,738.037
"bas","cue",2,"115825","bas_cue_run2_115825","H5","o","c","c","l",2,2,NA,"stay","red","black","black","nonincentive",2000,1,981,2,2,129678,134177,135158,38558,6,91.12,95.619,96.6,28.424,274.422,520.42,246.025,492.023,738.037
"bas","cue",2,"115825","bas_cue_run2_115825","B2","e","c","i","l",1,2,NA,"stay","red","black","black","nonincentive",4400,1,1611,2,2,140477,144976,146587,38558,7,101.919,106.418,108.029,28.424,274.422,520.42,246.025,492.023,738.037
"bas","cue",2,"115825","bas_cue_run2_115825","6I","e","v","c","n",1,1,NA,"switch","red","black","black","nonincentive",3200,1,1622,1,1,153676,158175,159797,38558,8,115.118,119.617,121.239,28.424,274.422,520.42,246.025,492.023,738.037
"bas","cue",2,"115825","bas_cue_run2_115825","A2","e","v","c","n",1,1,NA,"stay","red","black","black","nonincentive",3200,1,1268,1,1,165675,170175,171443,38558,9,127.117,131.617,132.885,28.424,274.422,520.42,246.025,492.023,738.037
"bas","cue",2,"115825","bas_cue_run2_115825","3E","o","v","i","n",2,1,NA,"stay","red","black","green","nonincentive",2000,1,1826,2,2,177674,182174,184000,38558,10,139.116,143.616,145.442,28.424,274.422,520.42,246.025,492.023,738.037
"bas","cue",2,"115825","bas_cue_run2_115825","4D","e","c","i","l",1,2,NA,"switch","red","black","green","nonincentive",3200,0,2287,1,2,188473,192973,195260,38558,11,149.915,154.415,156.702,28.424,274.422,520.42,246.025,492.023,738.037
"bas","cue",2,"115825","bas_cue_run2_115825","E3","o","v","i","l",2,1,NA,"stay","red","black","green","nonincentive",3200,1,1541,1,1,200472,204972,206513,38558,12,161.914,166.414,167.955,28.424,274.422,520.42,246.025,492.023,738.037
"bas","cue",2,"115825","bas_cue_run2_115825","5H","o","c","c","n",2,2,NA,"switch","red","black","black","nonincentive",4400,1,1424,2,2,212471,216971,218395,38558,13,173.913,178.413,179.837,28.424,274.422,520.42,246.025,492.023,738.037
"bas","cue",2,"115825","bas_cue_run2_115825","1B","o","c","c","n",2,2,NA,"stay","red","black","black","nonincentive",3200,1,822,2,2,225670,230170,230992,38558,14,187.112,191.612,192.434,28.424,274.422,520.42,246.025,492.023,738.037
"bas","cue",2,"115825","bas_cue_run2_115825","B1","o","c","c","n",2,2,NA,"stay","red","black","black","nonincentive",4400,1,1376,2,2,237686,242186,243562,38558,15,199.128,203.628,205.004,28.424,274.422,520.42,246.025,492.023,738.037
"bas","cue",2,"115825","bas_cue_run2_115825","D4","e","c","i","n",1,2,NA,"stay","red","black","green","nonincentive",4400,1,1690,1,1,250885,255385,257075,38558,16,212.327,216.827,218.517,28.424,274.422,520.42,246.025,492.023,738.037
"bas","cue",2,"115825","bas_cue_run2_115825","A2","e","v","c","l",1,1,NA,"switch","red","black","black","nonincentive",2000,1,1981,1,1,264084,268584,270565,38558,17,225.526,230.026,232.007,28.424,274.422,520.42,246.025,492.023,738.037
"bas","cue",2,"115825","bas_cue_run2_115825","B1","o","c","c","l",2,2,NA,"stay","red","black","black","nonincentive",2000,1,1477,2,2,274883,279383,280860,38558,18,236.325,240.825,242.302,28.424,274.422,520.42,246.025,492.023,738.037
"bas","cue",2,"115825","bas_cue_run2_115825","2A","e","v","c","l",1,1,NA,NA,"red","black","black","nonincentive",3200,1,1479,1,1,315680,320180,321659,38558,19,277.122,281.622,283.101,28.424,274.422,520.42,246.025,492.023,738.037
"bas","cue",2,"115825","bas_cue_run2_115825","1A","o","v","i","n",2,1,NA,"switch","red","black","black","nonincentive",4400,0,1760,1,2,327679,332179,333939,38558,20,289.121,293.621,295.381,28.424,274.422,520.42,246.025,492.023,738.037
"bas","cue",2,"115825","bas_cue_run2_115825","A2","e","v","c","n",1,1,NA,"stay","red","black","black","nonincentive",2000,1,1158,1,1,340878,345378,346536,38558,21,302.32,306.82,307.978,28.424,274.422,520.42,246.025,492.023,738.037
"bas","cue",2,"115825","bas_cue_run2_115825","D4","e","c","i","n",1,2,NA,"stay","red","black","green","nonincentive",3200,0,1768,2,1,351677,356177,357945,38558,22,313.119,317.619,319.387,28.424,274.422,520.42,246.025,492.023,738.037
"bas","cue",2,"115825","bas_cue_run2_115825","3E","o","v","i","l",2,1,NA,"switch","red","black","green","nonincentive",3200,1,1114,1,1,363677,368176,369290,38558,23,325.119,329.618,330.732,28.424,274.422,520.42,246.025,492.023,738.037
"bas","cue",2,"115825","bas_cue_run2_115825","D4","e","c","i","l",1,2,NA,"stay","red","black","green","nonincentive",4400,1,1655,2,2,375676,380175,381830,38558,24,337.118,341.617,343.272,28.424,274.422,520.42,246.025,492.023,738.037
"bas","cue",2,"115825","bas_cue_run2_115825","B1","o","c","c","l",2,2,NA,"stay","red","black","black","nonincentive",2000,1,990,2,2,388875,393374,394364,38558,25,350.317,354.816,355.806,28.424,274.422,520.42,246.025,492.023,738.037
"bas","cue",2,"115825","bas_cue_run2_115825","4D","e","c","i","n",1,2,NA,"switch","red","black","green","nonincentive",4400,0,2153,2,1,399674,404173,406326,38558,26,361.116,365.615,367.768,28.424,274.422,520.42,246.025,492.023,738.037
"bas","cue",2,"115825","bas_cue_run2_115825","2A","e","v","c","n",1,1,NA,"stay","red","black","black","nonincentive",2000,1,2244,1,1,412873,417372,419616,38558,27,374.315,378.814,381.058,28.424,274.422,520.42,246.025,492.023,738.037
"bas","cue",2,"115825","bas_cue_run2_115825","I6","e","v","c","n",1,1,NA,"stay","red","black","black","nonincentive",4400,1,1087,1,1,423672,428172,429259,38558,28,385.114,389.614,390.701,28.424,274.422,520.42,246.025,492.023,738.037
"bas","cue",2,"115825","bas_cue_run2_115825","2B","e","c","i","n",1,2,NA,"stay","red","black","black","nonincentive",2000,1,768,1,1,436871,441371,442139,38558,29,398.313,402.813,403.581,28.424,274.422,520.42,246.025,492.023,738.037
"bas","cue",2,"115825","bas_cue_run2_115825","H5","o","c","c","l",2,2,NA,"switch","red","black","black","nonincentive",3200,1,808,2,2,447670,452170,452978,38558,30,409.112,413.612,414.42,28.424,274.422,520.42,246.025,492.023,738.037
"bas","cue",2,"115825","bas_cue_run2_115825","B1","o","c","c","n",2,2,NA,"switch","red","black","black","nonincentive",2000,1,675,2,2,459686,464186,464861,38558,31,421.128,425.628,426.303,28.424,274.422,520.42,246.025,492.023,738.037
"bas","cue",2,"115825","bas_cue_run2_115825","A2","e","v","c","l",1,1,NA,"switch","red","black","black","nonincentive",4400,1,2186,1,1,470485,474985,477171,38558,32,431.927,436.427,438.613,28.424,274.422,520.42,246.025,492.023,738.037
"bas","cue",2,"115825","bas_cue_run2_115825","I6","e","v","c","l",1,1,NA,"stay","red","black","black","nonincentive",3200,1,1001,1,1,483684,488184,489185,38558,33,445.126,449.626,450.627,28.424,274.422,520.42,246.025,492.023,738.037
"bas","cue",2,"115825","bas_cue_run2_115825","1B","o","c","c","l",2,2,NA,"stay","red","black","black","nonincentive",4400,1,894,2,2,495683,500183,501077,38558,34,457.125,461.625,462.519,28.424,274.422,520.42,246.025,492.023,738.037
"bas","cue",2,"115825","bas_cue_run2_115825","5H","o","c","c","l",2,2,NA,"stay","red","black","green","nonincentive",2000,1,1322,2,2,508882,513382,514704,38558,35,470.324,474.824,476.146,28.424,274.422,520.42,246.025,492.023,738.037
"bas","cue",2,"115825","bas_cue_run2_115825","I6","e","v","c","n",1,1,NA,"switch","red","black","green","nonincentive",3200,1,1204,1,1,519681,524181,525385,38558,36,481.123,485.623,486.827,28.424,274.422,520.42,246.025,492.023,738.037
"bas","cue",2,"115825","bas_cue_run2_115825","D4","e","c","i","l",1,2,NA,NA,"red","black","green","nonincentive",3200,1,1487,2,2,561678,566178,567665,38558,37,523.12,527.62,529.107,28.424,274.422,520.42,246.025,492.023,738.037
"bas","cue",2,"115825","bas_cue_run2_115825","E3","o","v","i","l",2,1,NA,"stay","red","black","green","nonincentive",4400,1,1763,1,1,573677,578177,579940,38558,38,535.119,539.619,541.382,28.424,274.422,520.42,246.025,492.023,738.037
"bas","cue",2,"115825","bas_cue_run2_115825","B1","o","c","c","l",2,2,NA,"stay","red","black","black","nonincentive",4400,1,1049,2,2,586876,591376,592425,38558,39,548.318,552.818,553.867,28.424,274.422,520.42,246.025,492.023,738.037
"bas","cue",2,"115825","bas_cue_run2_115825","4D","e","c","i","l",1,2,NA,"stay","red","black","green","nonincentive",4400,1,1173,2,2,600075,604575,605748,38558,40,561.517,566.017,567.19,28.424,274.422,520.42,246.025,492.023,738.037
"bas","cue",2,"115825","bas_cue_run2_115825","B1","o","c","c","n",2,2,NA,"switch","red","black","black","nonincentive",2000,1,1667,2,2,613274,617774,619441,38558,41,574.716,579.216,580.883,28.424,274.422,520.42,246.025,492.023,738.037
"bas","cue",2,"115825","bas_cue_run2_115825","A1","o","v","i","l",2,1,NA,"switch","red","black","black","nonincentive",2000,1,1798,1,1,624073,628573,630371,38558,42,585.515,590.015,591.813,28.424,274.422,520.42,246.025,492.023,738.037
"bas","cue",2,"115825","bas_cue_run2_115825","6I","e","v","c","n",1,1,NA,"switch","red","black","black","nonincentive",3200,1,1600,1,1,634873,639372,640972,38558,43,596.315,600.814,602.414,28.424,274.422,520.42,246.025,492.023,738.037
"bas","cue",2,"115825","bas_cue_run2_115825","2A","e","v","c","n",1,1,NA,"stay","red","black","black","nonincentive",3200,1,2321,1,1,646872,651371,653692,38558,44,608.314,612.813,615.134,28.424,274.422,520.42,246.025,492.023,738.037
"bas","cue",2,"115825","bas_cue_run2_115825","1B","o","c","c","l",2,2,NA,"switch","red","black","black","nonincentive",2000,1,887,2,2,658871,663371,664258,38558,45,620.313,624.813,625.7,28.424,274.422,520.42,246.025,492.023,738.037
"bas","cue",2,"115825","bas_cue_run2_115825","3E","o","v","i","n",2,1,NA,"switch","red","black","green","nonincentive",3200,1,845,2,2,669670,674170,675015,38558,46,631.112,635.612,636.457,28.424,274.422,520.42,246.025,492.023,738.037
"bas","cue",2,"115825","bas_cue_run2_115825","1B","o","c","c","n",2,2,NA,"stay","red","black","black","nonincentive",4400,1,1244,2,2,681686,686185,687429,38558,47,643.128,647.627,648.871,28.424,274.422,520.42,246.025,492.023,738.037
"bas","cue",2,"115825","bas_cue_run2_115825","5H","o","c","c","n",2,2,NA,"stay","red","black","black","nonincentive",3200,1,718,2,2,694885,699384,700102,38558,48,656.327,660.826,661.544,28.424,274.422,520.42,246.025,492.023,738.037
"bas","cue",2,"115825","bas_cue_run2_115825","A2","e","v","c","n",1,1,NA,"stay","red","black","black","nonincentive",2000,1,1214,1,1,706884,711384,712598,38558,49,668.326,672.826,674.04,28.424,274.422,520.42,246.025,492.023,738.037
"bas","cue",2,"115825","bas_cue_run2_115825","H5","o","c","c","l",2,2,NA,"switch","red","black","black","nonincentive",4400,1,470,2,2,717683,722183,722653,38558,50,679.125,683.625,684.095,28.424,274.422,520.42,246.025,492.023,738.037
"bas","cue",2,"115825","bas_cue_run2_115825","H5","o","c","c","n",2,2,NA,"switch","red","black","green","nonincentive",3200,1,873,2,2,730882,735382,736255,38558,51,692.324,696.824,697.697,28.424,274.422,520.42,246.025,492.023,738.037
"bas","cue",2,"115825","bas_cue_run2_115825","4D","e","c","i","n",1,2,NA,"stay","red","black","green","nonincentive",2000,1,1593,1,1,742881,747381,748974,38558,52,704.323,708.823,710.416,28.424,274.422,520.42,246.025,492.023,738.037
"bas","cue",2,"115825","bas_cue_run2_115825","A2","e","v","c","l",1,1,NA,"switch","red","black","black","nonincentive",2000,1,1394,1,1,753680,758180,759574,38558,53,715.122,719.622,721.016,28.424,274.422,520.42,246.025,492.023,738.037
"bas","cue",2,"115825","bas_cue_run2_115825","2B","e","c","i","l",1,2,NA,"stay","red","black","black","nonincentive",4400,1,1919,2,2,764480,768979,770898,38558,54,725.922,730.421,732.34,28.424,274.422,520.42,246.025,492.023,738.037
"pro","cue",1,"115825","pro_cue_run1_115825","H5","o","c","c","l",2,2,NA,NA,"red","black","black","nonincentive",4400,1,820,2,2,149137,153637,154457,118029,1,31.108,35.608,36.428,28.408,274.403,520.414,246.022,492.017,738.028
"pro","cue",1,"115825","pro_cue_run1_115825","5H","o","c","c","l",2,2,NA,"stay","red","black","black","nonincentive",3200,1,553,2,2,162336,166835,167388,118029,2,44.307,48.806,49.359,28.408,274.403,520.414,246.022,492.017,738.028
"pro","cue",1,"115825","pro_cue_run1_115825","1B","o","c","c","l",2,2,NA,"stay","red","black","black","nonincentive",4400,0,569,1,2,174335,178834,179403,118029,3,56.306,60.805,61.374,28.408,274.403,520.414,246.022,492.017,738.028
"pro","cue",1,"115825","pro_cue_run1_115825","A2","e","v","c","l",1,1,NA,"stay","red","black","black","nonincentive",4400,1,1468,1,1,187534,192033,193501,118029,4,69.505,74.004,75.472,28.408,274.403,520.414,246.022,492.017,738.028
"pro","cue",1,"115825","pro_cue_run1_115825","A2","e","v","c","n",1,1,NA,"switch","red","black","black","nonincentive",3200,1,919,1,1,200732,205232,206151,118029,5,82.703,87.203,88.122,28.408,274.403,520.414,246.022,492.017,738.028
"pro","cue",1,"115825","pro_cue_run1_115825","4D","e","c","i","n",1,2,"yes","stay","green","black","green","incentive",3200,1,1154,1,1,212731,217231,218385,118029,6,94.702,99.202,100.356,28.408,274.403,520.414,246.022,492.017,738.028
"pro","cue",1,"115825","pro_cue_run1_115825","2A","e","v","c","n",1,1,NA,"stay","red","black","black","nonincentive",2000,1,690,1,1,224747,229247,229937,118029,7,106.718,111.218,111.908,28.408,274.403,520.414,246.022,492.017,738.028
"pro","cue",1,"115825","pro_cue_run1_115825","B1","o","c","c","l",2,2,NA,"switch","red","black","black","nonincentive",2000,1,1710,2,2,235546,240046,241756,118029,8,117.517,122.017,123.727,28.408,274.403,520.414,246.022,492.017,738.028
"pro","cue",1,"115825","pro_cue_run1_115825","1A","o","v","i","l",2,1,NA,"stay","red","black","black","nonincentive",2000,1,1207,1,1,246345,250845,252052,118029,9,128.316,132.816,134.023,28.408,274.403,520.414,246.022,492.017,738.028
"pro","cue",1,"115825","pro_cue_run1_115825","I6","e","v","c","n",1,1,NA,"switch","red","black","black","nonincentive",2000,1,1130,1,1,257144,261644,262774,118029,10,139.115,143.615,144.745,28.408,274.403,520.414,246.022,492.017,738.028
"pro","cue",1,"115825","pro_cue_run1_115825","B2","e","c","i","n",1,2,NA,"stay","red","black","black","nonincentive",3200,1,1214,1,1,267943,272443,273657,118029,11,149.914,154.414,155.628,28.408,274.403,520.414,246.022,492.017,738.028
"pro","cue",1,"115825","pro_cue_run1_115825","1B","o","c","c","n",2,2,NA,"stay","red","black","black","nonincentive",3200,1,1722,2,2,279942,284442,286164,118029,12,161.913,166.413,168.135,28.408,274.403,520.414,246.022,492.017,738.028
"pro","cue",1,"115825","pro_cue_run1_115825","D4","e","c","i","n",1,2,"yes","stay","green","black","green","incentive",2000,1,904,1,1,291941,296440,297344,118029,13,173.912,178.411,179.315,28.408,274.403,520.414,246.022,492.017,738.028
"pro","cue",1,"115825","pro_cue_run1_115825","I6","e","v","c","l",1,1,"yes","switch","green","black","green","incentive",4400,1,1233,1,1,302740,307239,308472,118029,14,184.711,189.21,190.443,28.408,274.403,520.414,246.022,492.017,738.028
"pro","cue",1,"115825","pro_cue_run1_115825","E3","o","v","i","l",2,1,"yes","stay","green","black","green","incentive",3200,1,1424,1,1,315939,320438,321862,118029,15,197.91,202.409,203.833,28.408,274.403,520.414,246.022,492.017,738.028
"pro","cue",1,"115825","pro_cue_run1_115825","D4","e","c","i","l",1,2,"yes","stay","green","black","green","incentive",4400,1,1244,2,2,327938,332437,333681,118029,16,209.909,214.408,215.652,28.408,274.403,520.414,246.022,492.017,738.028
"pro","cue",1,"115825","pro_cue_run1_115825","6I","e","v","c","n",1,1,"yes","switch","green","black","green","incentive",4400,1,847,1,1,341136,345636,346483,118029,17,223.107,227.607,228.454,28.408,274.403,520.414,246.022,492.017,738.028
"pro","cue",1,"115825","pro_cue_run1_115825","B1","o","c","c","n",2,2,NA,"stay","red","black","black","nonincentive",2000,1,911,2,2,354335,358835,359746,118029,18,236.306,240.806,241.717,28.408,274.403,520.414,246.022,492.017,738.028
"pro","cue",1,"115825","pro_cue_run1_115825","2B","e","c","i","l",1,2,NA,NA,"red","black","black","nonincentive",4400,1,1480,2,2,395132,399631,401111,118029,19,277.103,281.602,283.082,28.408,274.403,520.414,246.022,492.017,738.028
"pro","cue",1,"115825","pro_cue_run1_115825","5H","o","c","c","n",2,2,"yes","switch","green","black","green","incentive",2000,1,795,2,2,408347,412847,413642,118029,20,290.318,294.818,295.613,28.408,274.403,520.414,246.022,492.017,738.028
"pro","cue",1,"115825","pro_cue_run1_115825","D4","e","c","i","l",1,2,"yes","switch","green","black","green","incentive",3200,1,866,2,2,419146,423646,424512,118029,21,301.117,305.617,306.483,28.408,274.403,520.414,246.022,492.017,738.028
"pro","cue",1,"115825","pro_cue_run1_115825","A2","e","v","c","n",1,1,NA,"switch","red","black","black","nonincentive",3200,0,1455,2,1,431145,435645,437100,118029,22,313.116,317.616,319.071,28.408,274.403,520.414,246.022,492.017,738.028
"pro","cue",1,"115825","pro_cue_run1_115825","3E","o","v","i","l",2,1,"yes","switch","green","black","green","incentive",4400,1,1407,1,1,443144,447643,449050,118029,23,325.115,329.614,331.021,28.408,274.403,520.414,246.022,492.017,738.028
"pro","cue",1,"115825","pro_cue_run1_115825","E3","o","v","i","n",2,1,"yes","switch","green","black","green","incentive",4400,1,742,2,2,456343,460842,461584,118029,24,338.314,342.813,343.555,28.408,274.403,520.414,246.022,492.017,738.028
"pro","cue",1,"115825","pro_cue_run1_115825","B1","o","c","c","l",2,2,NA,"switch","red","black","black","nonincentive",2000,1,1055,2,2,469542,474041,475096,118029,25,351.513,356.012,357.067,28.408,274.403,520.414,246.022,492.017,738.028
"pro","cue",1,"115825","pro_cue_run1_115825","2A","e","v","c","l",1,1,NA,"stay","red","black","black","nonincentive",3200,1,1544,1,1,480341,484840,486384,118029,26,362.312,366.811,368.355,28.408,274.403,520.414,246.022,492.017,738.028
"pro","cue",1,"115825","pro_cue_run1_115825","E3","o","v","i","n",2,1,"yes","switch","green","black","green","incentive",2000,1,954,2,2,492339,496839,497793,118029,27,374.31,378.81,379.764,28.408,274.403,520.414,246.022,492.017,738.028
"pro","cue",1,"115825","pro_cue_run1_115825","2A","e","v","c","l",1,1,NA,"switch","red","black","black","nonincentive",2000,1,1539,1,1,503139,507638,509177,118029,28,385.11,389.609,391.148,28.408,274.403,520.414,246.022,492.017,738.028
"pro","cue",1,"115825","pro_cue_run1_115825","1B","o","c","c","n",2,2,NA,"switch","red","black","black","nonincentive",2000,1,879,2,2,513938,518437,519316,118029,29,395.909,400.408,401.287,28.408,274.403,520.414,246.022,492.017,738.028
"pro","cue",1,"115825","pro_cue_run1_115825","6I","e","v","c","n",1,1,NA,"stay","red","black","black","nonincentive",3200,1,1279,1,1,524737,529236,530515,118029,30,406.708,411.207,412.486,28.408,274.403,520.414,246.022,492.017,738.028
"pro","cue",1,"115825","pro_cue_run1_115825","I6","e","v","c","l",1,1,NA,"switch","red","black","black","nonincentive",4400,1,829,1,1,536735,541235,542064,118029,31,418.706,423.206,424.035,28.408,274.403,520.414,246.022,492.017,738.028
"pro","cue",1,"115825","pro_cue_run1_115825","A1","o","v","i","n",2,1,NA,"switch","red","black","black","nonincentive",4400,0,0,NA,2,549934,554434,0,118029,32,431.905,436.405,-118.029,28.408,274.403,520.414,246.022,492.017,738.028
"pro","cue",1,"115825","pro_cue_run1_115825","1B","o","c","c","l",2,2,NA,"switch","red","black","black","nonincentive",3200,1,1158,2,2,563133,567633,568791,118029,33,445.104,449.604,450.762,28.408,274.403,520.414,246.022,492.017,738.028
"pro","cue",1,"115825","pro_cue_run1_115825","2A","e","v","c","n",1,1,NA,"switch","red","black","black","nonincentive",4400,1,1472,1,1,575132,579632,581104,118029,34,457.103,461.603,463.075,28.408,274.403,520.414,246.022,492.017,738.028
"pro","cue",1,"115825","pro_cue_run1_115825","5H","o","c","c","l",2,2,NA,"switch","red","black","black","nonincentive",3200,1,905,2,2,588331,592847,593752,118029,35,470.302,474.818,475.723,28.408,274.403,520.414,246.022,492.017,738.028
"pro","cue",1,"115825","pro_cue_run1_115825","3E","o","v","i","n",2,1,"too.slow","switch","green","black","green","incentive",2000,1,1840,2,2,600346,604846,606686,118029,36,482.317,486.817,488.657,28.408,274.403,520.414,246.022,492.017,738.028
"pro","cue",1,"115825","pro_cue_run1_115825","A2","e","v","c","n",1,1,NA,NA,"red","black","black","nonincentive",3200,1,904,1,1,641143,645642,646546,118029,37,523.114,527.613,528.517,28.408,274.403,520.414,246.022,492.017,738.028
"pro","cue",1,"115825","pro_cue_run1_115825","4D","e","c","i","l",1,2,"yes","switch","green","black","green","incentive",2000,1,609,2,2,653142,657641,658250,118029,38,535.113,539.612,540.221,28.408,274.403,520.414,246.022,492.017,738.028
"pro","cue",1,"115825","pro_cue_run1_115825","A2","e","v","c","l",1,1,NA,"stay","red","black","black","nonincentive",3200,1,1624,1,1,663941,668440,670064,118029,39,545.912,550.411,552.035,28.408,274.403,520.414,246.022,492.017,738.028
"pro","cue",1,"115825","pro_cue_run1_115825","1B","o","c","c","l",2,2,NA,"stay","red","black","black","nonincentive",3200,1,1069,2,2,675940,680439,681508,118029,40,557.911,562.41,563.479,28.408,274.403,520.414,246.022,492.017,738.028
"pro","cue",1,"115825","pro_cue_run1_115825","6I","e","v","c","n",1,1,NA,"switch","red","black","black","nonincentive",4400,1,1640,1,1,687939,692438,694078,118029,41,569.91,574.409,576.049,28.408,274.403,520.414,246.022,492.017,738.028
"pro","cue",1,"115825","pro_cue_run1_115825","E3","o","v","i","l",2,1,"yes","switch","green","black","green","incentive",2000,1,750,1,1,701137,705637,706387,118029,42,583.108,587.608,588.358,28.408,274.403,520.414,246.022,492.017,738.028
"pro","cue",1,"115825","pro_cue_run1_115825","H5","o","c","c","l",2,2,"yes","stay","green","black","green","incentive",2000,1,643,2,2,711936,716436,717079,118029,43,593.907,598.407,599.05,28.408,274.403,520.414,246.022,492.017,738.028
"pro","cue",1,"115825","pro_cue_run1_115825","6I","e","v","c","l",1,1,NA,"stay","red","black","black","nonincentive",4400,1,1631,1,1,722735,727235,728866,118029,44,604.706,609.206,610.837,28.408,274.403,520.414,246.022,492.017,738.028
"pro","cue",1,"115825","pro_cue_run1_115825","3E","o","v","i","n",2,1,"yes","switch","green","black","green","incentive",4400,1,796,2,2,735934,740434,741230,118029,45,617.905,622.405,623.201,28.408,274.403,520.414,246.022,492.017,738.028
"pro","cue",1,"115825","pro_cue_run1_115825","1A","o","v","i","n",2,1,NA,"stay","red","black","black","nonincentive",4400,1,1365,2,2,749133,753633,754998,118029,46,631.104,635.604,636.969,28.408,274.403,520.414,246.022,492.017,738.028
"pro","cue",1,"115825","pro_cue_run1_115825","1B","o","c","c","n",2,2,NA,"stay","red","black","black","nonincentive",3200,1,883,2,2,762332,766831,767714,118029,47,644.303,648.802,649.685,28.408,274.403,520.414,246.022,492.017,738.028
"pro","cue",1,"115825","pro_cue_run1_115825","2A","e","v","c","n",1,1,NA,"stay","red","black","black","nonincentive",2000,1,1370,1,1,774331,778847,780217,118029,48,656.302,660.818,662.188,28.408,274.403,520.414,246.022,492.017,738.028
"pro","cue",1,"115825","pro_cue_run1_115825","3E","o","v","i","l",2,1,"too.slow","switch","green","black","green","incentive",3200,1,1652,1,1,785146,789646,791298,118029,49,667.117,671.617,673.269,28.408,274.403,520.414,246.022,492.017,738.028
"pro","cue",1,"115825","pro_cue_run1_115825","H5","o","c","c","n",2,2,NA,"switch","red","black","black","nonincentive",4400,1,1178,2,2,797145,801645,802823,118029,50,679.116,683.616,684.794,28.408,274.403,520.414,246.022,492.017,738.028
"pro","cue",1,"115825","pro_cue_run1_115825","B1","o","c","c","l",2,2,NA,"switch","red","black","black","nonincentive",4400,1,2759,2,2,810344,814844,817603,118029,51,692.315,696.815,699.574,28.408,274.403,520.414,246.022,492.017,738.028
"pro","cue",1,"115825","pro_cue_run1_115825","4D","e","c","i","n",1,2,"yes","switch","green","black","green","incentive",3200,1,584,1,1,823543,828043,828627,118029,52,705.514,710.014,710.598,28.408,274.403,520.414,246.022,492.017,738.028
"pro","cue",1,"115825","pro_cue_run1_115825","2A","e","v","c","l",1,1,NA,"switch","red","black","black","nonincentive",2000,1,1156,1,1,835542,840041,841197,118029,53,717.513,722.012,723.168,28.408,274.403,520.414,246.022,492.017,738.028
"pro","cue",1,"115825","pro_cue_run1_115825","B1","o","c","c","n",2,2,NA,"switch","red","black","black","nonincentive",2000,1,856,2,2,846341,850841,851697,118029,54,728.312,732.812,733.668,28.408,274.403,520.414,246.022,492.017,738.028
"pro","cue",2,"115825","pro_cue_run2_115825","2A","e","v","c","l",1,1,NA,NA,"red","black","black","nonincentive",4400,1,1510,1,1,68825,73325,74835,37700,1,31.125,35.625,37.135,28.425,274.42,520.414,246.022,492.033,738.028
"pro","cue",2,"115825","pro_cue_run2_115825","E3","o","v","i","l",2,1,"yes","stay","green","black","green","incentive",3200,1,868,1,1,82024,86523,87391,37700,2,44.324,48.823,49.691,28.425,274.42,520.414,246.022,492.033,738.028
"pro","cue",2,"115825","pro_cue_run2_115825","4D","e","c","i","l",1,2,"yes","stay","green","black","green","incentive",2000,1,1358,2,2,94023,98522,99880,37700,3,56.323,60.822,62.18,28.425,274.42,520.414,246.022,492.033,738.028
"pro","cue",2,"115825","pro_cue_run2_115825","1B","o","c","c","n",2,2,NA,"switch","red","black","black","nonincentive",3200,1,925,2,2,104822,109321,110246,37700,4,67.122,71.621,72.546,28.425,274.42,520.414,246.022,492.033,738.028
"pro","cue",2,"115825","pro_cue_run2_115825","A2","e","v","c","n",1,1,NA,"stay","red","black","black","nonincentive",4400,1,1412,1,1,116821,121320,122732,37700,5,79.121,83.62,85.032,28.425,274.42,520.414,246.022,492.033,738.028
"pro","cue",2,"115825","pro_cue_run2_115825","2A","e","v","c","n",1,1,NA,"stay","red","black","black","nonincentive",2000,1,1415,1,1,130019,134519,135934,37700,6,92.319,96.819,98.234,28.425,274.42,520.414,246.022,492.033,738.028
"pro","cue",2,"115825","pro_cue_run2_115825","H5","o","c","c","l",2,2,NA,"switch","red","black","black","nonincentive",4400,1,605,2,2,140818,145318,145923,37700,7,103.118,107.618,108.223,28.425,274.42,520.414,246.022,492.033,738.028
"pro","cue",2,"115825","pro_cue_run2_115825","B1","o","c","c","n",2,2,NA,"switch","red","black","black","nonincentive",2000,1,1671,2,2,154017,158517,160188,37700,8,116.317,120.817,122.488,28.425,274.42,520.414,246.022,492.033,738.028
"pro","cue",2,"115825","pro_cue_run2_115825","6I","e","v","c","l",1,1,"yes","switch","green","black","green","incentive",3200,1,1400,1,1,164816,169316,170716,37700,9,127.116,131.616,133.016,28.425,274.42,520.414,246.022,492.033,738.028
"pro","cue",2,"115825","pro_cue_run2_115825","B2","e","c","i","l",1,2,NA,"stay","red","black","black","nonincentive",4400,1,709,2,2,176815,181315,182024,37700,10,139.115,143.615,144.324,28.425,274.42,520.414,246.022,492.033,738.028
"pro","cue",2,"115825","pro_cue_run2_115825","A2","e","v","c","l",1,1,NA,"stay","red","black","black","nonincentive",4400,1,852,1,1,190014,194514,195366,37700,11,152.314,156.814,157.666,28.425,274.42,520.414,246.022,492.033,738.028
"pro","cue",2,"115825","pro_cue_run2_115825","D4","e","c","i","n",1,2,"yes","switch","green","black","green","incentive",3200,1,763,1,1,203213,207712,208475,37700,12,165.513,170.012,170.775,28.425,274.42,520.414,246.022,492.033,738.028
"pro","cue",2,"115825","pro_cue_run2_115825","6I","e","v","c","n",1,1,NA,"stay","red","black","black","nonincentive",3200,1,1457,1,1,215212,219711,221168,37700,13,177.512,182.011,183.468,28.425,274.42,520.414,246.022,492.033,738.028
"pro","cue",2,"115825","pro_cue_run2_115825","3E","o","v","i","n",2,1,"yes","stay","green","black","green","incentive",3200,1,625,2,2,227211,231710,232335,37700,14,189.511,194.01,194.635,28.425,274.42,520.414,246.022,492.033,738.028
"pro","cue",2,"115825","pro_cue_run2_115825","E3","o","v","i","n",2,1,"yes","stay","green","black","green","incentive",2000,1,1044,2,2,239210,243726,244770,37700,15,201.51,206.026,207.07,28.425,274.42,520.414,246.022,492.033,738.028
"pro","cue",2,"115825","pro_cue_run2_115825","5H","o","c","c","n",2,2,NA,"stay","red","black","black","nonincentive",2000,1,482,2,2,250025,254525,255007,37700,16,212.325,216.825,217.307,28.425,274.42,520.414,246.022,492.033,738.028
"pro","cue",2,"115825","pro_cue_run2_115825","B1","o","c","c","l",2,2,NA,"switch","red","black","black","nonincentive",4400,1,1210,2,2,260824,265324,266534,37700,17,223.124,227.624,228.834,28.425,274.42,520.414,246.022,492.033,738.028
"pro","cue",2,"115825","pro_cue_run2_115825","1B","o","c","c","l",2,2,NA,"stay","red","black","black","nonincentive",2000,1,1083,2,2,274023,278523,279606,37700,18,236.323,240.823,241.906,28.425,274.42,520.414,246.022,492.033,738.028
"pro","cue",2,"115825","pro_cue_run2_115825","D4","e","c","i","n",1,2,"yes",NA,"green","black","green","incentive",2000,1,1072,1,1,314819,319319,320391,37700,19,277.119,281.619,282.691,28.425,274.42,520.414,246.022,492.033,738.028
"pro","cue",2,"115825","pro_cue_run2_115825","D4","e","c","i","l",1,2,"yes","switch","green","black","green","incentive",4400,1,1191,2,2,325618,330118,331309,37700,20,287.918,292.418,293.609,28.425,274.42,520.414,246.022,492.033,738.028
"pro","cue",2,"115825","pro_cue_run2_115825","I6","e","v","c","n",1,1,NA,"switch","red","black","black","nonincentive",4400,1,1270,1,1,338817,343317,344587,37700,21,301.117,305.617,306.887,28.425,274.42,520.414,246.022,492.033,738.028
"pro","cue",2,"115825","pro_cue_run2_115825","3E","o","v","i","l",2,1,"yes","switch","green","black","green","incentive",2000,1,1375,1,1,352016,356516,357891,37700,22,314.316,318.816,320.191,28.425,274.42,520.414,246.022,492.033,738.028
"pro","cue",2,"115825","pro_cue_run2_115825","A2","e","v","c","l",1,1,NA,"stay","red","black","black","nonincentive",4400,1,1709,1,1,362815,367315,369024,37700,23,325.115,329.615,331.324,28.425,274.42,520.414,246.022,492.033,738.028
"pro","cue",2,"115825","pro_cue_run2_115825","5H","o","c","c","l",2,2,"yes","stay","green","black","green","incentive",3200,1,778,2,2,376014,380514,381292,37700,24,338.314,342.814,343.592,28.425,274.42,520.414,246.022,492.033,738.028
"pro","cue",2,"115825","pro_cue_run2_115825","A2","e","v","c","n",1,1,NA,"switch","red","black","black","nonincentive",3200,1,1689,1,1,388013,392512,394201,37700,25,350.313,354.812,356.501,28.425,274.42,520.414,246.022,492.033,738.028
"pro","cue",2,"115825","pro_cue_run2_115825","2A","e","v","c","l",1,1,NA,"switch","red","black","black","nonincentive",2000,1,930,1,1,400012,404511,405441,37700,26,362.312,366.811,367.741,28.425,274.42,520.414,246.022,492.033,738.028
"pro","cue",2,"115825","pro_cue_run2_115825","1A","o","v","i","n",2,1,NA,"switch","red","black","black","nonincentive",3200,1,1170,2,2,410811,415310,416480,37700,27,373.111,377.61,378.78,28.425,274.42,520.414,246.022,492.033,738.028
"pro","cue",2,"115825","pro_cue_run2_115825","4D","e","c","i","n",1,2,"yes","stay","green","black","green","incentive",3200,1,624,1,1,422810,427326,427950,37700,28,385.11,389.626,390.25,28.425,274.42,520.414,246.022,492.033,738.028
"pro","cue",2,"115825","pro_cue_run2_115825","H5","o","c","c","l",2,2,NA,"switch","red","black","black","nonincentive",4400,1,659,2,2,434825,439325,439984,37700,29,397.125,401.625,402.284,28.425,274.42,520.414,246.022,492.033,738.028
"pro","cue",2,"115825","pro_cue_run2_115825","I6","e","v","c","l",1,1,NA,"stay","red","black","black","nonincentive",3200,1,1456,1,1,448024,452524,453980,37700,30,410.324,414.824,416.28,28.425,274.42,520.414,246.022,492.033,738.028
"pro","cue",2,"115825","pro_cue_run2_115825","1B","o","c","c","l",2,2,NA,"stay","red","black","black","nonincentive",2000,1,975,2,2,460023,464523,465498,37700,31,422.323,426.823,427.798,28.425,274.42,520.414,246.022,492.033,738.028
"pro","cue",2,"115825","pro_cue_run2_115825","I6","e","v","c","n",1,1,"yes","switch","green","black","green","incentive",3200,1,1470,1,1,470822,475322,476792,37700,32,433.122,437.622,439.092,28.425,274.42,520.414,246.022,492.033,738.028
"pro","cue",2,"115825","pro_cue_run2_115825","B1","o","c","c","n",2,2,NA,"stay","red","black","black","nonincentive",2000,1,741,2,2,482821,487321,488062,37700,33,445.121,449.621,450.362,28.425,274.42,520.414,246.022,492.033,738.028
"pro","cue",2,"115825","pro_cue_run2_115825","B1","o","c","c","l",2,2,NA,"switch","red","black","black","nonincentive",4400,1,1184,2,2,493620,498120,499304,37700,34,455.92,460.42,461.604,28.425,274.42,520.414,246.022,492.033,738.028
"pro","cue",2,"115825","pro_cue_run2_115825","2A","e","v","c","n",1,1,NA,"switch","red","black","black","nonincentive",4400,1,1952,1,1,506819,511318,513270,37700,35,469.119,473.618,475.57,28.425,274.42,520.414,246.022,492.033,738.028
"pro","cue",2,"115825","pro_cue_run2_115825","2B","e","c","i","n",1,2,NA,"stay","red","black","black","nonincentive",2000,1,888,1,1,520018,524517,525405,37700,36,482.318,486.817,487.705,28.425,274.42,520.414,246.022,492.033,738.028
"pro","cue",2,"115825","pro_cue_run2_115825","1B","o","c","c","l",2,2,NA,NA,"red","black","black","nonincentive",4400,1,867,2,2,560814,565314,566181,37700,37,523.114,527.614,528.481,28.425,274.42,520.414,246.022,492.033,738.028
"pro","cue",2,"115825","pro_cue_run2_115825","6I","e","v","c","n",1,1,NA,"switch","red","black","black","nonincentive",2000,1,1054,1,1,574013,578512,579566,37700,38,536.313,540.812,541.866,28.425,274.42,520.414,246.022,492.033,738.028
"pro","cue",2,"115825","pro_cue_run2_115825","A2","e","v","c","n",1,1,NA,"stay","red","black","black","nonincentive",3200,1,919,1,1,584812,589311,590230,37700,39,547.112,551.611,552.53,28.425,274.42,520.414,246.022,492.033,738.028
"pro","cue",2,"115825","pro_cue_run2_115825","3E","o","v","i","n",2,1,"error","stay","green","black","green","incentive",4400,0,1785,1,2,596811,601310,603095,37700,40,559.111,563.61,565.395,28.425,274.42,520.414,246.022,492.033,738.028
"pro","cue",2,"115825","pro_cue_run2_115825","2B","e","c","i","l",1,2,NA,"switch","red","black","black","nonincentive",3200,1,1144,2,2,610010,614526,615670,37700,41,572.31,576.826,577.97,28.425,274.42,520.414,246.022,492.033,738.028
"pro","cue",2,"115825","pro_cue_run2_115825","E3","o","v","i","l",2,1,"yes","stay","green","black","green","incentive",2000,1,1300,1,1,622025,626525,627825,37700,42,584.325,588.825,590.125,28.425,274.42,520.414,246.022,492.033,738.028
"pro","cue",2,"115825","pro_cue_run2_115825","B1","o","c","c","n",2,2,NA,"switch","red","black","black","nonincentive",4400,1,1273,2,2,632824,637324,638597,37700,43,595.124,599.624,600.897,28.425,274.42,520.414,246.022,492.033,738.028
"pro","cue",2,"115825","pro_cue_run2_115825","5H","o","c","c","n",2,2,NA,"stay","red","black","black","nonincentive",2000,1,742,2,2,646023,650523,651265,37700,44,608.323,612.823,613.565,28.425,274.42,520.414,246.022,492.033,738.028
"pro","cue",2,"115825","pro_cue_run2_115825","B1","o","c","c","l",2,2,NA,"switch","red","black","black","nonincentive",3200,1,970,2,2,656822,661322,662292,37700,45,619.122,623.622,624.592,28.425,274.42,520.414,246.022,492.033,738.028
"pro","cue",2,"115825","pro_cue_run2_115825","1B","o","c","c","n",2,2,NA,"switch","red","black","black","nonincentive",4400,1,1209,2,2,668821,673320,674529,37700,46,631.121,635.62,636.829,28.425,274.42,520.414,246.022,492.033,738.028
"pro","cue",2,"115825","pro_cue_run2_115825","A2","e","v","c","l",1,1,NA,"switch","red","black","black","nonincentive",3200,1,1380,1,1,682020,686519,687899,37700,47,644.32,648.819,650.199,28.425,274.42,520.414,246.022,492.033,738.028
"pro","cue",2,"115825","pro_cue_run2_115825","H5","o","c","c","l",2,2,NA,"stay","red","black","black","nonincentive",2000,1,670,2,2,694019,698518,699188,37700,48,656.319,660.818,661.488,28.425,274.42,520.414,246.022,492.033,738.028
"pro","cue",2,"115825","pro_cue_run2_115825","4D","e","c","i","n",1,2,"yes","switch","green","black","green","incentive",3200,1,486,1,1,704818,709317,709803,37700,49,667.118,671.617,672.103,28.425,274.42,520.414,246.022,492.033,738.028
"pro","cue",2,"115825","pro_cue_run2_115825","2A","e","v","c","n",1,1,NA,"stay","red","black","black","nonincentive",2000,1,935,1,1,716817,721316,722251,37700,50,679.117,683.616,684.551,28.425,274.42,520.414,246.022,492.033,738.028
"pro","cue",2,"115825","pro_cue_run2_115825","D4","e","c","i","l",1,2,"error","switch","green","black","green","incentive",2000,0,1971,1,2,727616,732115,734086,37700,51,689.916,694.415,696.386,28.425,274.42,520.414,246.022,492.033,738.028
"pro","cue",2,"115825","pro_cue_run2_115825","A1","o","v","i","l",2,1,NA,"stay","red","black","black","nonincentive",4400,1,1635,1,1,738415,742914,744549,37700,52,700.715,705.214,706.849,28.425,274.42,520.414,246.022,492.033,738.028
"pro","cue",2,"115825","pro_cue_run2_115825","H5","o","c","c","n",2,2,"yes","switch","green","black","green","incentive",3200,1,577,2,2,751613,756113,756690,37700,53,713.913,718.413,718.99,28.425,274.42,520.414,246.022,492.033,738.028
"pro","cue",2,"115825","pro_cue_run2_115825","4D","e","c","i","l",1,2,"yes","switch","green","black","green","incentive",4400,1,1163,2,2,763612,768112,769275,37700,54,725.912,730.412,731.575,28.425,274.42,520.414,246.022,492.033,738.028
"rea","cue",1,"115825","rea_cue_run1_115825","A2","e","v","c","n",1,1,NA,NA,"red","black","black","nonincentive",3200,0,2301,2,1,150377,154864,157165,119263,1,31.114,35.601,37.902,28.412,274.415,520.417,246.026,492.012,738.015
"rea","cue",1,"115825","rea_cue_run1_115825","I6","e","v","c","n",1,1,NA,"stay","red","black","black","nonincentive",3200,1,1922,1,1,162369,166873,168795,119263,2,43.106,47.61,49.532,28.412,274.415,520.417,246.026,492.012,738.015
"rea","cue",1,"115825","rea_cue_run1_115825","5H","o","c","c","l",2,2,NA,"switch","red","black","black","nonincentive",2000,1,1236,2,2,174379,178865,180101,119263,3,55.116,59.602,60.838,28.412,274.415,520.417,246.026,492.012,738.015
"rea","cue",1,"115825","rea_cue_run1_115825","1A","o","v","i","l",2,1,NA,"stay","red","black","black","nonincentive",3200,1,2084,1,1,185170,189673,191757,119263,4,65.907,70.41,72.494,28.412,274.415,520.417,246.026,492.012,738.015
"rea","cue",1,"115825","rea_cue_run1_115825","A2","e","v","c","l",1,1,NA,"stay","red","black","black","nonincentive",2000,1,931,1,1,197179,201666,202597,119263,5,77.916,82.403,83.334,28.412,274.415,520.417,246.026,492.012,738.015
"rea","cue",1,"115825","rea_cue_run1_115825","2A","e","v","c","n",1,1,NA,"switch","red","black","black","nonincentive",4400,1,1196,1,1,207971,212474,213670,119263,6,88.708,93.211,94.407,28.412,274.415,520.417,246.026,492.012,738.015
"rea","cue",1,"115825","rea_cue_run1_115825","D4","e","c","i","l",1,2,"yes","switch","red","green","green","incentive",4400,1,1336,2,2,221164,225667,227003,119263,7,101.901,106.404,107.74,28.412,274.415,520.417,246.026,492.012,738.015
"rea","cue",1,"115825","rea_cue_run1_115825","B2","e","c","i","n",1,2,NA,"switch","red","black","black","nonincentive",2000,1,1058,1,1,234374,238877,239935,119263,8,115.111,119.614,120.672,28.412,274.415,520.417,246.026,492.012,738.015
"rea","cue",1,"115825","rea_cue_run1_115825","1B","o","c","c","l",2,2,NA,"switch","red","black","black","nonincentive",4400,1,1661,2,2,245165,249669,251330,119263,9,125.902,130.406,132.067,28.412,274.415,520.417,246.026,492.012,738.015
"rea","cue",1,"115825","rea_cue_run1_115825","B1","o","c","c","n",2,2,NA,"switch","red","black","black","nonincentive",2000,1,1813,2,2,258375,262879,264692,119263,10,139.112,143.616,145.429,28.412,274.415,520.417,246.026,492.012,738.015
"rea","cue",1,"115825","rea_cue_run1_115825","H5","o","c","c","l",2,2,NA,"switch","red","black","black","nonincentive",4400,1,757,2,2,269167,273670,274427,119263,11,149.904,154.407,155.164,28.412,274.415,520.417,246.026,492.012,738.015
"rea","cue",1,"115825","rea_cue_run1_115825","6I","e","v","c","n",1,1,"yes","switch","red","green","green","incentive",3200,1,1794,1,1,282377,286880,288674,119263,12,163.114,167.617,169.411,28.412,274.415,520.417,246.026,492.012,738.015
"rea","cue",1,"115825","rea_cue_run1_115825","B1","o","c","c","l",2,2,NA,"switch","red","black","black","nonincentive",2000,1,1020,2,2,294369,298873,299893,119263,13,175.106,179.61,180.63,28.412,274.415,520.417,246.026,492.012,738.015
"rea","cue",1,"115825","rea_cue_run1_115825","1B","o","c","c","n",2,2,NA,"switch","red","black","black","nonincentive",2000,0,1034,1,2,305177,309664,310698,119263,14,185.914,190.401,191.435,28.412,274.415,520.417,246.026,492.012,738.015
"rea","cue",1,"115825","rea_cue_run1_115825","4D","e","c","i","n",1,2,"error","stay","red","green","green","incentive",4400,0,2259,2,1,315969,320472,322731,119263,15,196.706,201.209,203.468,28.412,274.415,520.417,246.026,492.012,738.015
"rea","cue",1,"115825","rea_cue_run1_115825","I6","e","v","c","l",1,1,"yes","switch","red","green","green","incentive",3200,1,1858,1,1,329179,333666,335524,119263,16,209.916,214.403,216.261,28.412,274.415,520.417,246.026,492.012,738.015
"rea","cue",1,"115825","rea_cue_run1_115825","D4","e","c","i","n",1,2,"error","switch","red","green","green","incentive",4400,0,1770,2,1,341171,345675,347445,119263,17,221.908,226.412,228.182,28.412,274.415,520.417,246.026,492.012,738.015
"rea","cue",1,"115825","rea_cue_run1_115825","E3","o","v","i","l",2,1,"yes","switch","red","green","green","incentive",3200,1,2220,1,1,354364,358868,361088,119263,18,235.101,239.605,241.825,28.412,274.415,520.417,246.026,492.012,738.015
"rea","cue",1,"115825","rea_cue_run1_115825","I6","e","v","c","l",1,1,NA,NA,"red","black","black","nonincentive",4400,1,1085,1,1,396380,400866,401951,119263,19,277.117,281.603,282.688,28.412,274.415,520.417,246.026,492.012,738.015
"rea","cue",1,"115825","rea_cue_run1_115825","5H","o","c","c","n",2,2,"yes","switch","red","green","green","incentive",3200,1,765,2,2,409573,414076,414841,119263,20,290.31,294.813,295.578,28.412,274.415,520.417,246.026,492.012,738.015
"rea","cue",1,"115825","rea_cue_run1_115825","E3","o","v","i","n",2,1,"yes","stay","red","green","green","incentive",2000,1,1938,2,2,421565,426069,428007,119263,21,302.302,306.806,308.744,28.412,274.415,520.417,246.026,492.012,738.015
"rea","cue",1,"115825","rea_cue_run1_115825","1B","o","c","c","l",2,2,NA,"switch","red","black","black","nonincentive",2000,1,1539,2,2,432373,436877,438416,119263,22,313.11,317.614,319.153,28.412,274.415,520.417,246.026,492.012,738.015
"rea","cue",1,"115825","rea_cue_run1_115825","2A","e","v","c","l",1,1,NA,"stay","red","black","black","nonincentive",2000,1,1381,1,1,443165,447668,449049,119263,23,323.902,328.405,329.786,28.412,274.415,520.417,246.026,492.012,738.015
"rea","cue",1,"115825","rea_cue_run1_115825","5H","o","c","c","l",2,2,NA,"stay","red","black","black","nonincentive",4400,1,1539,2,2,453973,458476,460015,119263,24,334.71,339.213,340.752,28.412,274.415,520.417,246.026,492.012,738.015
"rea","cue",1,"115825","rea_cue_run1_115825","1B","o","c","c","n",2,2,NA,"switch","red","black","black","nonincentive",3200,1,1205,2,2,467166,471670,472875,119263,25,347.903,352.407,353.612,28.412,274.415,520.417,246.026,492.012,738.015
"rea","cue",1,"115825","rea_cue_run1_115825","2A","e","v","c","n",1,1,NA,"stay","red","black","black","nonincentive",3200,1,1330,1,1,479175,483679,485009,119263,26,359.912,364.416,365.746,28.412,274.415,520.417,246.026,492.012,738.015
"rea","cue",1,"115825","rea_cue_run1_115825","2A","e","v","c","l",1,1,NA,"switch","red","black","black","nonincentive",4400,1,1964,1,1,491168,495671,497635,119263,27,371.905,376.408,378.372,28.412,274.415,520.417,246.026,492.012,738.015
"rea","cue",1,"115825","rea_cue_run1_115825","B1","o","c","c","l",2,2,NA,"stay","red","black","black","nonincentive",4400,1,781,2,2,504378,508865,509646,119263,28,385.115,389.602,390.383,28.412,274.415,520.417,246.026,492.012,738.015
"rea","cue",1,"115825","rea_cue_run1_115825","2B","e","c","i","l",1,2,NA,"stay","red","black","black","nonincentive",4400,1,1817,2,2,517571,522075,523892,119263,29,398.308,402.812,404.629,28.412,274.415,520.417,246.026,492.012,738.015
"rea","cue",1,"115825","rea_cue_run1_115825","A1","o","v","i","n",2,1,NA,"switch","red","black","black","nonincentive",3200,1,1093,2,2,530764,535268,536361,119263,30,411.501,416.005,417.098,28.412,274.415,520.417,246.026,492.012,738.015
"rea","cue",1,"115825","rea_cue_run1_115825","3E","o","v","i","n",2,1,"yes","stay","red","green","green","incentive",4400,1,1180,2,2,542773,547277,548457,119263,31,423.51,428.014,429.194,28.412,274.415,520.417,246.026,492.012,738.015
"rea","cue",1,"115825","rea_cue_run1_115825","6I","e","v","c","n",1,1,NA,"stay","red","black","black","nonincentive",3200,0,1269,2,1,555967,560470,561739,119263,32,436.704,441.207,442.476,28.412,274.415,520.417,246.026,492.012,738.015
"rea","cue",1,"115825","rea_cue_run1_115825","3E","o","v","i","l",2,1,"yes","switch","red","green","green","incentive",2000,1,1869,1,1,567976,572479,574348,119263,33,448.713,453.216,455.085,28.412,274.415,520.417,246.026,492.012,738.015
"rea","cue",1,"115825","rea_cue_run1_115825","E3","o","v","i","n",2,1,"yes","switch","red","green","green","incentive",2000,1,1661,2,2,578767,583271,584932,119263,34,459.504,464.008,465.669,28.412,274.415,520.417,246.026,492.012,738.015
"rea","cue",1,"115825","rea_cue_run1_115825","A2","e","v","c","n",1,1,NA,"stay","red","black","black","nonincentive",2000,1,938,1,1,589576,594079,595017,119263,35,470.313,474.816,475.754,28.412,274.415,520.417,246.026,492.012,738.015
"rea","cue",1,"115825","rea_cue_run1_115825","D4","e","c","i","l",1,2,"error","switch","red","green","green","incentive",3200,0,2020,1,2,600367,604870,606890,119263,36,481.104,485.607,487.627,28.412,274.415,520.417,246.026,492.012,738.015
"rea","cue",1,"115825","rea_cue_run1_115825","3E","o","v","i","n",2,1,"yes",NA,"red","green","green","incentive",2000,1,1097,2,2,642365,646869,647966,119263,37,523.102,527.606,528.703,28.412,274.415,520.417,246.026,492.012,738.015
"rea","cue",1,"115825","rea_cue_run1_115825","3E","o","v","i","l",2,1,"yes","switch","red","green","green","incentive",4400,1,1835,1,1,653174,657677,659512,119263,38,533.911,538.414,540.249,28.412,274.415,520.417,246.026,492.012,738.015
"rea","cue",1,"115825","rea_cue_run1_115825","A2","e","v","c","l",1,1,NA,"stay","red","black","black","nonincentive",4400,1,1122,1,1,666367,670870,671992,119263,39,547.104,551.607,552.729,28.412,274.415,520.417,246.026,492.012,738.015
"rea","cue",1,"115825","rea_cue_run1_115825","4D","e","c","i","n",1,2,"yes","switch","red","green","green","incentive",3200,1,1116,1,1,679577,684080,685196,119263,40,560.314,564.817,565.933,28.412,274.415,520.417,246.026,492.012,738.015
"rea","cue",1,"115825","rea_cue_run1_115825","H5","o","c","c","n",2,2,NA,"stay","red","black","black","nonincentive",3200,1,1361,2,2,691569,696073,697434,119263,41,572.306,576.81,578.171,28.412,274.415,520.417,246.026,492.012,738.015
"rea","cue",1,"115825","rea_cue_run1_115825","1A","o","v","i","n",2,1,NA,"stay","red","black","black","nonincentive",2000,1,1025,2,2,703578,708065,709090,119263,42,584.315,588.802,589.827,28.412,274.415,520.417,246.026,492.012,738.015
"rea","cue",1,"115825","rea_cue_run1_115825","6I","e","v","c","n",1,1,NA,"stay","red","black","black","nonincentive",3200,1,1366,1,1,714370,718873,720239,119263,43,595.107,599.61,600.976,28.412,274.415,520.417,246.026,492.012,738.015
"rea","cue",1,"115825","rea_cue_run1_115825","1B","o","c","c","n",2,2,NA,"stay","red","black","black","nonincentive",2000,1,1227,2,2,726379,730866,732093,119263,44,607.116,611.603,612.83,28.412,274.415,520.417,246.026,492.012,738.015
"rea","cue",1,"115825","rea_cue_run1_115825","A2","e","v","c","n",1,1,NA,"stay","red","black","black","nonincentive",4400,1,881,1,1,737170,741674,742555,119263,45,617.907,622.411,623.292,28.412,274.415,520.417,246.026,492.012,738.015
"rea","cue",1,"115825","rea_cue_run1_115825","2A","e","v","c","l",1,1,NA,"switch","red","black","black","nonincentive",2000,1,1588,1,1,750364,754867,756455,119263,46,631.101,635.604,637.192,28.412,274.415,520.417,246.026,492.012,738.015
"rea","cue",1,"115825","rea_cue_run1_115825","H5","o","c","c","l",2,2,"yes","stay","red","green","green","incentive",3200,1,1390,2,2,761172,765675,767065,119263,47,641.909,646.412,647.802,28.412,274.415,520.417,246.026,492.012,738.015
"rea","cue",1,"115825","rea_cue_run1_115825","B1","o","c","c","l",2,2,NA,"stay","red","black","black","nonincentive",4400,1,1212,2,2,773164,777668,778880,119263,48,653.901,658.405,659.617,28.412,274.415,520.417,246.026,492.012,738.015
"rea","cue",1,"115825","rea_cue_run1_115825","E3","o","v","i","l",2,1,"yes","stay","red","green","green","incentive",4400,1,1859,1,1,786374,790878,792737,119263,49,667.111,671.615,673.474,28.412,274.415,520.417,246.026,492.012,738.015
"rea","cue",1,"115825","rea_cue_run1_115825","1B","o","c","c","l",2,2,NA,"stay","red","black","black","nonincentive",2000,1,2078,2,2,799567,804071,806149,119263,50,680.304,684.808,686.886,28.412,274.415,520.417,246.026,492.012,738.015
"rea","cue",1,"115825","rea_cue_run1_115825","4D","e","c","i","l",1,2,"yes","stay","red","green","green","incentive",4400,1,1401,2,2,810376,814879,816280,119263,51,691.113,695.616,697.017,28.412,274.415,520.417,246.026,492.012,738.015
"rea","cue",1,"115825","rea_cue_run1_115825","6I","e","v","c","l",1,1,NA,"stay","red","black","black","nonincentive",2000,1,1787,1,1,823569,828072,829859,119263,52,704.306,708.809,710.596,28.412,274.415,520.417,246.026,492.012,738.015
"rea","cue",1,"115825","rea_cue_run1_115825","B1","o","c","c","n",2,2,NA,"switch","red","black","black","nonincentive",3200,1,1206,2,2,834377,838864,840070,119263,53,715.114,719.601,720.807,28.412,274.415,520.417,246.026,492.012,738.015
"rea","cue",1,"115825","rea_cue_run1_115825","2A","e","v","c","n",1,1,NA,"stay","red","black","black","nonincentive",3200,1,1743,1,1,846370,850873,852616,119263,54,727.107,731.61,733.353,28.412,274.415,520.417,246.026,492.012,738.015
"rea","cue",2,"115825","rea_cue_run2_115825","3E","o","v","i","n",2,1,"yes",NA,"red","green","green","incentive",2000,1,1085,2,2,72860,77347,78432,41741,1,31.119,35.606,36.691,28.417,274.42,520.405,246.015,492.017,738.02
"rea","cue",2,"115825","rea_cue_run2_115825","1B","o","c","c","l",2,2,NA,"switch","red","black","black","nonincentive",4400,1,1442,2,2,83652,88155,89597,41741,2,41.911,46.414,47.856,28.417,274.42,520.405,246.015,492.017,738.02
"rea","cue",2,"115825","rea_cue_run2_115825","A2","e","v","c","l",1,1,NA,"stay","red","black","black","nonincentive",3200,1,862,1,1,96862,101348,102210,41741,3,55.121,59.607,60.469,28.417,274.42,520.405,246.015,492.017,738.02
"rea","cue",2,"115825","rea_cue_run2_115825","6I","e","v","c","n",1,1,NA,"switch","red","black","black","nonincentive",2000,1,1351,1,1,108854,113357,114708,41741,4,67.113,71.616,72.967,28.417,274.42,520.405,246.015,492.017,738.02
"rea","cue",2,"115825","rea_cue_run2_115825","E3","o","v","i","l",2,1,"yes","switch","red","green","green","incentive",3200,1,1363,1,1,119646,124149,125512,41741,5,77.905,82.408,83.771,28.417,274.42,520.405,246.015,492.017,738.02
"rea","cue",2,"115825","rea_cue_run2_115825","H5","o","c","c","l",2,2,NA,"stay","red","black","black","nonincentive",4400,1,1293,2,2,131655,136158,137451,41741,6,89.914,94.417,95.71,28.417,274.42,520.405,246.015,492.017,738.02
"rea","cue",2,"115825","rea_cue_run2_115825","6I","e","v","c","l",1,1,"yes","stay","red","green","green","incentive",2000,1,1103,1,1,144848,149351,150454,41741,7,103.107,107.61,108.713,28.417,274.42,520.405,246.015,492.017,738.02
"rea","cue",2,"115825","rea_cue_run2_115825","2A","e","v","c","l",1,1,NA,"stay","red","black","black","nonincentive",3200,1,1592,1,1,155656,160160,161752,41741,8,113.915,118.419,120.011,28.417,274.42,520.405,246.015,492.017,738.02
"rea","cue",2,"115825","rea_cue_run2_115825","5H","o","c","c","n",2,2,NA,"switch","red","black","black","nonincentive",4400,1,871,2,2,167648,172152,173023,41741,9,125.907,130.411,131.282,28.417,274.42,520.405,246.015,492.017,738.02
"rea","cue",2,"115825","rea_cue_run2_115825","2A","e","v","c","n",1,1,NA,"stay","red","black","black","nonincentive",2000,1,780,1,1,180858,185362,186142,41741,10,139.117,143.621,144.401,28.417,274.42,520.405,246.015,492.017,738.02
"rea","cue",2,"115825","rea_cue_run2_115825","E3","o","v","i","n",2,1,"yes","stay","red","green","green","incentive",4400,1,1960,2,2,191650,196153,198113,41741,11,149.909,154.412,156.372,28.417,274.42,520.405,246.015,492.017,738.02
"rea","cue",2,"115825","rea_cue_run2_115825","4D","e","c","i","l",1,2,"yes","switch","red","green","green","incentive",2000,1,1420,2,2,204860,209347,210767,41741,12,163.119,167.606,169.026,28.417,274.42,520.405,246.015,492.017,738.02
"rea","cue",2,"115825","rea_cue_run2_115825","A2","e","v","c","n",1,1,NA,"switch","red","black","black","nonincentive",4400,1,1221,1,1,215651,220155,221376,41741,13,173.91,178.414,179.635,28.417,274.42,520.405,246.015,492.017,738.02
"rea","cue",2,"115825","rea_cue_run2_115825","1B","o","c","c","n",2,2,NA,"stay","red","black","black","nonincentive",3200,1,1266,2,2,228861,233348,234614,41741,14,187.12,191.607,192.873,28.417,274.42,520.405,246.015,492.017,738.02
"rea","cue",2,"115825","rea_cue_run2_115825","D4","e","c","i","n",1,2,"yes","stay","red","green","green","incentive",3200,1,1105,1,1,240854,245357,246462,41741,15,199.113,203.616,204.721,28.417,274.42,520.405,246.015,492.017,738.02
"rea","cue",2,"115825","rea_cue_run2_115825","B1","o","c","c","n",2,2,NA,"stay","red","black","black","nonincentive",2000,1,1344,2,2,252846,257350,258694,41741,16,211.105,215.609,216.953,28.417,274.42,520.405,246.015,492.017,738.02
"rea","cue",2,"115825","rea_cue_run2_115825","B2","e","c","i","l",1,2,NA,"switch","red","black","black","nonincentive",4400,1,1940,2,2,263654,268158,270098,41741,17,221.913,226.417,228.357,28.417,274.42,520.405,246.015,492.017,738.02
"rea","cue",2,"115825","rea_cue_run2_115825","B1","o","c","c","l",2,2,NA,"stay","red","black","black","nonincentive",3200,1,2346,2,2,276848,281351,283697,41741,18,235.107,239.61,241.956,28.417,274.42,520.405,246.015,492.017,738.02
"rea","cue",2,"115825","rea_cue_run2_115825","4D","e","c","i","n",1,2,"yes",NA,"red","green","green","incentive",3200,1,1603,1,1,318846,323349,324952,41741,19,277.105,281.608,283.211,28.417,274.42,520.405,246.015,492.017,738.02
"rea","cue",2,"115825","rea_cue_run2_115825","B1","o","c","c","l",2,2,NA,"switch","red","black","black","nonincentive",3200,1,1000,2,2,330855,335358,336358,41741,20,289.114,293.617,294.617,28.417,274.42,520.405,246.015,492.017,738.02
"rea","cue",2,"115825","rea_cue_run2_115825","2A","e","v","c","l",1,1,NA,"stay","red","black","black","nonincentive",2000,0,2201,2,1,342847,347351,349552,41741,21,301.106,305.61,307.811,28.417,274.42,520.405,246.015,492.017,738.02
"rea","cue",2,"115825","rea_cue_run2_115825","5H","o","c","c","l",2,2,"yes","stay","red","green","green","incentive",4400,1,1657,2,2,353656,358159,359816,41741,22,311.915,316.418,318.075,28.417,274.42,520.405,246.015,492.017,738.02
"rea","cue",2,"115825","rea_cue_run2_115825","I6","e","v","c","l",1,1,NA,"stay","red","black","black","nonincentive",3200,1,1171,1,1,366849,371352,372523,41741,23,325.108,329.611,330.782,28.417,274.42,520.405,246.015,492.017,738.02
"rea","cue",2,"115825","rea_cue_run2_115825","A2","e","v","c","l",1,1,NA,"stay","red","black","black","nonincentive",2000,1,2332,1,1,378858,383361,385693,41741,24,337.117,341.62,343.952,28.417,274.42,520.405,246.015,492.017,738.02
"rea","cue",2,"115825","rea_cue_run2_115825","I6","e","v","c","n",1,1,"yes","switch","red","green","green","incentive",4400,1,1614,1,1,389650,394153,395767,41741,25,347.909,352.412,354.026,28.417,274.42,520.405,246.015,492.017,738.02
"rea","cue",2,"115825","rea_cue_run2_115825","1B","o","c","c","l",2,2,NA,"switch","red","black","black","nonincentive",4400,1,909,2,2,402859,407346,408255,41741,26,361.118,365.605,366.514,28.417,274.42,520.405,246.015,492.017,738.02
"rea","cue",2,"115825","rea_cue_run2_115825","B1","o","c","c","n",2,2,NA,"switch","red","black","black","nonincentive",2000,1,1081,2,2,416053,420556,421637,41741,27,374.312,378.815,379.896,28.417,274.42,520.405,246.015,492.017,738.02
"rea","cue",2,"115825","rea_cue_run2_115825","1A","o","v","i","n",2,1,NA,"stay","red","black","black","nonincentive",3200,1,1584,2,2,426861,431348,432932,41741,28,385.12,389.607,391.191,28.417,274.42,520.405,246.015,492.017,738.02
"rea","cue",2,"115825","rea_cue_run2_115825","D4","e","c","i","l",1,2,"yes","switch","red","green","green","incentive",2000,1,1597,2,2,438853,443357,444954,41741,29,397.112,401.616,403.213,28.417,274.42,520.405,246.015,492.017,738.02
"rea","cue",2,"115825","rea_cue_run2_115825","D4","e","c","i","n",1,2,"yes","switch","red","green","green","incentive",3200,1,1797,1,1,449662,454148,455945,41741,30,407.921,412.407,414.204,28.417,274.42,520.405,246.015,492.017,738.02
"rea","cue",2,"115825","rea_cue_run2_115825","2A","e","v","c","n",1,1,NA,"stay","red","black","black","nonincentive",4400,1,1843,1,1,461654,466157,468000,41741,31,419.913,424.416,426.259,28.417,274.42,520.405,246.015,492.017,738.02
"rea","cue",2,"115825","rea_cue_run2_115825","H5","o","c","c","l",2,2,NA,"switch","red","black","black","nonincentive",4400,1,684,2,2,474847,479351,480035,41741,32,433.106,437.61,438.294,28.417,274.42,520.405,246.015,492.017,738.02
"rea","cue",2,"115825","rea_cue_run2_115825","A2","e","v","c","n",1,1,NA,"switch","red","black","black","nonincentive",2000,1,1375,1,1,488057,492561,493936,41741,33,446.316,450.82,452.195,28.417,274.42,520.405,246.015,492.017,738.02
"rea","cue",2,"115825","rea_cue_run2_115825","2B","e","c","i","n",1,2,NA,"stay","red","black","black","nonincentive",4400,1,1222,1,1,498849,503352,504574,41741,34,457.108,461.611,462.833,28.417,274.42,520.405,246.015,492.017,738.02
"rea","cue",2,"115825","rea_cue_run2_115825","I6","e","v","c","n",1,1,NA,"stay","red","black","black","nonincentive",3200,1,1932,1,1,512059,516562,518494,41741,35,470.318,474.821,476.753,28.417,274.42,520.405,246.015,492.017,738.02
"rea","cue",2,"115825","rea_cue_run2_115825","3E","o","v","i","l",2,1,"yes","switch","red","green","green","incentive",2000,1,2090,1,1,524051,528554,530644,41741,36,482.31,486.813,488.903,28.417,274.42,520.405,246.015,492.017,738.02
"rea","cue",2,"115825","rea_cue_run2_115825","2A","e","v","c","n",1,1,NA,NA,"red","black","black","nonincentive",3200,1,1250,1,1,564849,569352,570602,41741,37,523.108,527.611,528.861,28.417,274.42,520.405,246.015,492.017,738.02
"rea","cue",2,"115825","rea_cue_run2_115825","1B","o","c","c","l",2,2,NA,"switch","red","black","black","nonincentive",2000,1,1277,2,2,576858,581361,582638,41741,38,535.117,539.62,540.897,28.417,274.42,520.405,246.015,492.017,738.02
"rea","cue",2,"115825","rea_cue_run2_115825","D4","e","c","i","l",1,2,"yes","stay","red","green","green","incentive",4400,1,1512,2,2,587649,592152,593664,41741,39,545.908,550.411,551.923,28.417,274.42,520.405,246.015,492.017,738.02
"rea","cue",2,"115825","rea_cue_run2_115825","E3","o","v","i","l",2,1,"yes","stay","red","green","green","incentive",4400,1,1660,1,1,600859,605346,607006,41741,40,559.118,563.605,565.265,28.417,274.42,520.405,246.015,492.017,738.02
"rea","cue",2,"115825","rea_cue_run2_115825","6I","e","v","c","n",1,1,NA,"switch","red","black","black","nonincentive",2000,1,1096,1,1,614052,618556,619652,41741,41,572.311,576.815,577.911,28.417,274.42,520.405,246.015,492.017,738.02
"rea","cue",2,"115825","rea_cue_run2_115825","3E","o","v","i","n",2,1,"yes","stay","red","green","green","incentive",2000,1,1187,2,2,624861,629347,630534,41741,42,583.12,587.606,588.793,28.417,274.42,520.405,246.015,492.017,738.02
"rea","cue",2,"115825","rea_cue_run2_115825","B1","o","c","c","l",2,2,NA,"switch","red","black","black","nonincentive",4400,1,1051,2,2,635652,640155,641206,41741,43,593.911,598.414,599.465,28.417,274.42,520.405,246.015,492.017,738.02
"rea","cue",2,"115825","rea_cue_run2_115825","A1","o","v","i","l",2,1,NA,"stay","red","black","black","nonincentive",3200,1,1085,1,1,648862,653349,654434,41741,44,607.121,611.608,612.693,28.417,274.42,520.405,246.015,492.017,738.02
"rea","cue",2,"115825","rea_cue_run2_115825","4D","e","c","i","n",1,2,"yes","switch","red","green","green","incentive",3200,1,1212,1,1,660854,665358,666570,41741,45,619.113,623.617,624.829,28.417,274.42,520.405,246.015,492.017,738.02
"rea","cue",2,"115825","rea_cue_run2_115825","4D","e","c","i","l",1,2,"yes","switch","red","green","green","incentive",4400,1,1715,2,2,672847,677350,679065,41741,46,631.106,635.609,637.324,28.417,274.42,520.405,246.015,492.017,738.02
"rea","cue",2,"115825","rea_cue_run2_115825","H5","o","c","c","l",2,2,NA,"stay","red","black","black","nonincentive",4400,1,865,2,2,686057,690560,691425,41741,47,644.316,648.819,649.684,28.417,274.42,520.405,246.015,492.017,738.02
"rea","cue",2,"115825","rea_cue_run2_115825","A2","e","v","c","l",1,1,NA,"stay","red","black","black","nonincentive",4400,1,1358,1,1,699250,703753,705111,41741,48,657.509,662.012,663.37,28.417,274.42,520.405,246.015,492.017,738.02
"rea","cue",2,"115825","rea_cue_run2_115825","B1","o","c","c","n",2,2,NA,"switch","red","black","black","nonincentive",2000,1,1375,2,2,712460,716947,718322,41741,49,670.719,675.206,676.581,28.417,274.42,520.405,246.015,492.017,738.02
"rea","cue",2,"115825","rea_cue_run2_115825","2B","e","c","i","l",1,2,NA,"switch","red","black","black","nonincentive",2000,1,1671,2,2,723252,727755,729426,41741,50,681.511,686.014,687.685,28.417,274.42,520.405,246.015,492.017,738.02
"rea","cue",2,"115825","rea_cue_run2_115825","A2","e","v","c","n",1,1,NA,"switch","red","black","black","nonincentive",3200,1,854,1,1,734060,738546,739400,41741,51,692.319,696.805,697.659,28.417,274.42,520.405,246.015,492.017,738.02
"rea","cue",2,"115825","rea_cue_run2_115825","1B","o","c","c","n",2,2,NA,"stay","red","black","black","nonincentive",3200,1,1109,2,2,746052,750556,751665,41741,52,704.311,708.815,709.924,28.417,274.42,520.405,246.015,492.017,738.02
"rea","cue",2,"115825","rea_cue_run2_115825","5H","o","c","c","n",2,2,NA,"stay","red","black","black","nonincentive",2000,1,1389,2,2,758061,762548,763937,41741,53,716.32,720.807,722.196,28.417,274.42,520.405,246.015,492.017,738.02
"rea","cue",2,"115825","rea_cue_run2_115825","H5","o","c","c","n",2,2,"yes","stay","red","green","green","incentive",3200,1,1369,2,2,768853,773356,774725,41741,54,727.112,731.615,732.984,28.417,274.42,520.405,246.015,492.017,738.02
"bas","cue",1,"130114","bas_cue_run1_130114","6I","e","v","c","n",1,1,NA,NA,"red","black","green","nonincentive",2000,1,1497,1,1,195798,200298,201795,164682,1,31.116,35.616,37.113,28.417,274.427,520.421,246.03,492.023,738.034
"bas","cue",1,"130114","bas_cue_run1_130114","B1","o","c","c","l",2,2,NA,"switch","red","black","black","nonincentive",4400,1,905,2,2,206597,211097,212002,164682,2,41.915,46.415,47.32,28.417,274.427,520.421,246.03,492.023,738.034
"bas","cue",1,"130114","bas_cue_run1_130114","B1","o","c","c","n",2,2,NA,"switch","red","black","black","nonincentive",4400,0,1538,1,2,219796,224296,225834,164682,3,55.114,59.614,61.152,28.417,274.427,520.421,246.03,492.023,738.034
"bas","cue",1,"130114","bas_cue_run1_130114","A2","e","v","c","l",1,1,NA,"switch","red","black","black","nonincentive",2000,1,814,1,1,232995,237494,238308,164682,4,68.313,72.812,73.626,28.417,274.427,520.421,246.03,492.023,738.034
"bas","cue",1,"130114","bas_cue_run1_130114","A2","e","v","c","n",1,1,NA,"switch","red","black","black","nonincentive",4400,1,1070,1,1,243794,248310,249380,164682,5,79.112,83.628,84.698,28.417,274.427,520.421,246.03,492.023,738.034
"bas","cue",1,"130114","bas_cue_run1_130114","I6","e","v","c","n",1,1,NA,"stay","red","black","black","nonincentive",2000,1,941,1,1,257009,261509,262450,164682,6,92.327,96.827,97.768,28.417,274.427,520.421,246.03,492.023,738.034
"bas","cue",1,"130114","bas_cue_run1_130114","E3","o","v","i","l",2,1,NA,"switch","red","black","green","nonincentive",3200,1,834,1,1,267808,272308,273142,164682,7,103.126,107.626,108.46,28.417,274.427,520.421,246.03,492.023,738.034
"bas","cue",1,"130114","bas_cue_run1_130114","H5","o","c","c","l",2,2,NA,"stay","red","black","black","nonincentive",3200,1,967,2,2,279807,284307,285274,164682,8,115.125,119.625,120.592,28.417,274.427,520.421,246.03,492.023,738.034
"bas","cue",1,"130114","bas_cue_run1_130114","D4","e","c","i","n",1,2,NA,"switch","red","black","green","nonincentive",3200,1,991,1,1,291806,296306,297297,164682,9,127.124,131.624,132.615,28.417,274.427,520.421,246.03,492.023,738.034
"bas","cue",1,"130114","bas_cue_run1_130114","4D","e","c","i","n",1,2,NA,"stay","red","black","green","nonincentive",2000,1,798,1,1,303805,308305,309103,164682,10,139.123,143.623,144.421,28.417,274.427,520.421,246.03,492.023,738.034
"bas","cue",1,"130114","bas_cue_run1_130114","B2","e","c","i","n",1,2,NA,"stay","red","black","black","nonincentive",4400,1,1126,1,1,314604,319104,320230,164682,11,149.922,154.422,155.548,28.417,274.427,520.421,246.03,492.023,738.034
"bas","cue",1,"130114","bas_cue_run1_130114","1A","o","v","i","l",2,1,NA,"switch","red","black","black","nonincentive",4400,1,1179,1,1,327803,332302,333481,164682,12,163.121,167.62,168.799,28.417,274.427,520.421,246.03,492.023,738.034
"bas","cue",1,"130114","bas_cue_run1_130114","D4","e","c","i","l",1,2,NA,"stay","red","black","green","nonincentive",4400,1,1115,2,2,341001,345501,346616,164682,13,176.319,180.819,181.934,28.417,274.427,520.421,246.03,492.023,738.034
"bas","cue",1,"130114","bas_cue_run1_130114","1B","o","c","c","n",2,2,NA,"switch","red","black","black","nonincentive",3200,1,1400,2,2,354200,358700,360100,164682,14,189.518,194.018,195.418,28.417,274.427,520.421,246.03,492.023,738.034
"bas","cue",1,"130114","bas_cue_run1_130114","1B","o","c","c","l",2,2,NA,"switch","red","black","black","nonincentive",3200,1,933,2,2,366199,370699,371632,164682,15,201.517,206.017,206.95,28.417,274.427,520.421,246.03,492.023,738.034
"bas","cue",1,"130114","bas_cue_run1_130114","2A","e","v","c","n",1,1,NA,"switch","red","black","black","nonincentive",3200,1,960,1,1,378198,382698,383658,164682,16,213.516,218.016,218.976,28.417,274.427,520.421,246.03,492.023,738.034
"bas","cue",1,"130114","bas_cue_run1_130114","5H","o","c","c","l",2,2,NA,"switch","red","black","black","nonincentive",2000,1,809,2,2,390197,394696,395505,164682,17,225.515,230.014,230.823,28.417,274.427,520.421,246.03,492.023,738.034
"bas","cue",1,"130114","bas_cue_run1_130114","I6","e","v","c","l",1,1,NA,"stay","red","black","green","nonincentive",2000,0,1475,2,1,400996,405495,406970,164682,18,236.314,240.813,242.288,28.417,274.427,520.421,246.03,492.023,738.034
"bas","cue",1,"130114","bas_cue_run1_130114","A1","o","v","i","n",2,1,NA,NA,"red","black","black","nonincentive",3200,1,1670,2,2,441809,446308,447978,164682,19,277.127,281.626,283.296,28.417,274.427,520.421,246.03,492.023,738.034
"bas","cue",1,"130114","bas_cue_run1_130114","3E","o","v","i","l",2,1,NA,"switch","red","black","green","nonincentive",4400,1,1244,1,1,453808,458307,459551,164682,20,289.126,293.625,294.869,28.417,274.427,520.421,246.03,492.023,738.034
"bas","cue",1,"130114","bas_cue_run1_130114","E3","o","v","i","n",2,1,NA,"switch","red","black","green","nonincentive",3200,1,1909,2,2,467006,471506,473415,164682,21,302.324,306.824,308.733,28.417,274.427,520.421,246.03,492.023,738.034
"bas","cue",1,"130114","bas_cue_run1_130114","3E","o","v","i","n",2,1,NA,"stay","red","black","green","nonincentive",4400,1,1409,2,2,479005,483505,484914,164682,22,314.323,318.823,320.232,28.417,274.427,520.421,246.03,492.023,738.034
"bas","cue",1,"130114","bas_cue_run1_130114","B1","o","c","c","l",2,2,NA,"switch","red","black","black","nonincentive",4400,1,880,2,2,492204,496704,497584,164682,23,327.522,332.022,332.902,28.417,274.427,520.421,246.03,492.023,738.034
"bas","cue",1,"130114","bas_cue_run1_130114","2A","e","v","c","l",1,1,NA,"stay","red","black","black","nonincentive",2000,1,822,1,1,505403,509902,510724,164682,24,340.721,345.22,346.042,28.417,274.427,520.421,246.03,492.023,738.034
"bas","cue",1,"130114","bas_cue_run1_130114","1B","o","c","c","n",2,2,NA,"switch","red","black","black","nonincentive",2000,0,1944,1,2,516202,520701,522645,164682,25,351.52,356.019,357.963,28.417,274.427,520.421,246.03,492.023,738.034
"bas","cue",1,"130114","bas_cue_run1_130114","2A","e","v","c","n",1,1,NA,"stay","red","black","black","nonincentive",2000,1,579,1,1,527001,531500,532079,164682,26,362.319,366.818,367.397,28.417,274.427,520.421,246.03,492.023,738.034
"bas","cue",1,"130114","bas_cue_run1_130114","I6","e","v","c","l",1,1,NA,"switch","red","black","black","nonincentive",3200,1,1205,1,1,537800,542299,543504,164682,27,373.118,377.617,378.822,28.417,274.427,520.421,246.03,492.023,738.034
"bas","cue",1,"130114","bas_cue_run1_130114","E3","o","v","i","n",2,1,NA,"switch","red","black","green","nonincentive",4400,1,1793,2,2,549799,554298,556091,164682,28,385.117,389.616,391.409,28.417,274.427,520.421,246.03,492.023,738.034
"bas","cue",1,"130114","bas_cue_run1_130114","D4","e","c","i","l",1,2,NA,"switch","red","black","green","nonincentive",3200,1,1159,2,2,562997,567497,568656,164682,29,398.315,402.815,403.974,28.417,274.427,520.421,246.03,492.023,738.034
"bas","cue",1,"130114","bas_cue_run1_130114","2B","e","c","i","l",1,2,NA,"stay","red","black","black","nonincentive",2000,1,1149,2,2,574996,579496,580645,164682,30,410.314,414.814,415.963,28.417,274.427,520.421,246.03,492.023,738.034
"bas","cue",1,"130114","bas_cue_run1_130114","2A","e","v","c","l",1,1,NA,"stay","red","black","black","nonincentive",2000,1,1312,1,1,585795,590295,591607,164682,31,421.113,425.613,426.925,28.417,274.427,520.421,246.03,492.023,738.034
"bas","cue",1,"130114","bas_cue_run1_130114","A2","e","v","c","n",1,1,NA,"switch","red","black","black","nonincentive",4400,1,1198,1,1,596594,601094,602292,164682,32,431.912,436.412,437.61,28.417,274.427,520.421,246.03,492.023,738.034
"bas","cue",1,"130114","bas_cue_run1_130114","1B","o","c","c","l",2,2,NA,"switch","red","black","black","nonincentive",2000,1,861,2,2,609810,614309,615170,164682,33,445.128,449.627,450.488,28.417,274.427,520.421,246.03,492.023,738.034
"bas","cue",1,"130114","bas_cue_run1_130114","5H","o","c","c","n",2,2,NA,"switch","red","black","green","nonincentive",4400,1,948,2,2,620609,625108,626056,164682,34,455.927,460.426,461.374,28.417,274.427,520.421,246.03,492.023,738.034
"bas","cue",1,"130114","bas_cue_run1_130114","5H","o","c","c","l",2,2,NA,"switch","red","black","black","nonincentive",3200,1,1168,2,2,633808,638307,639475,164682,35,469.126,473.625,474.793,28.417,274.427,520.421,246.03,492.023,738.034
"bas","cue",1,"130114","bas_cue_run1_130114","6I","e","v","c","n",1,1,NA,"switch","red","black","black","nonincentive",3200,1,1558,1,1,645806,650306,651864,164682,36,481.124,485.624,487.182,28.417,274.427,520.421,246.03,492.023,738.034
"bas","cue",1,"130114","bas_cue_run1_130114","1B","o","c","c","n",2,2,NA,NA,"red","black","black","nonincentive",4400,1,1195,2,2,687803,692302,693497,164682,37,523.121,527.62,528.815,28.417,274.427,520.421,246.03,492.023,738.034
"bas","cue",1,"130114","bas_cue_run1_130114","A2","e","v","c","n",1,1,NA,"stay","red","black","black","nonincentive",4400,1,1026,1,1,701001,705501,706527,164682,38,536.319,540.819,541.845,28.417,274.427,520.421,246.03,492.023,738.034
"bas","cue",1,"130114","bas_cue_run1_130114","2A","e","v","c","n",1,1,NA,"stay","red","black","black","nonincentive",2000,1,939,1,1,714200,718700,719639,164682,39,549.518,554.018,554.957,28.417,274.427,520.421,246.03,492.023,738.034
"bas","cue",1,"130114","bas_cue_run1_130114","3E","o","v","i","n",2,1,NA,"stay","red","black","green","nonincentive",3200,0,1173,1,2,724999,729499,730672,164682,40,560.317,564.817,565.99,28.417,274.427,520.421,246.03,492.023,738.034
"bas","cue",1,"130114","bas_cue_run1_130114","4D","e","c","i","l",1,2,NA,"switch","red","black","green","nonincentive",3200,1,1387,2,2,736998,741498,742885,164682,41,572.316,576.816,578.203,28.417,274.427,520.421,246.03,492.023,738.034
"bas","cue",1,"130114","bas_cue_run1_130114","E3","o","v","i","l",2,1,NA,"stay","red","black","green","nonincentive",4400,1,1085,1,1,748997,753496,754581,164682,42,584.315,588.814,589.899,28.417,274.427,520.421,246.03,492.023,738.034
"bas","cue",1,"130114","bas_cue_run1_130114","1B","o","c","c","l",2,2,NA,"stay","red","black","black","nonincentive",2000,1,1106,2,2,762196,766695,767801,164682,43,597.514,602.013,603.119,28.417,274.427,520.421,246.03,492.023,738.034
"bas","cue",1,"130114","bas_cue_run1_130114","B1","o","c","c","l",2,2,NA,"stay","red","black","black","nonincentive",2000,1,943,2,2,772995,777494,778437,164682,44,608.313,612.812,613.755,28.417,274.427,520.421,246.03,492.023,738.034
"bas","cue",1,"130114","bas_cue_run1_130114","1A","o","v","i","n",2,1,NA,"switch","red","black","black","nonincentive",3200,1,1466,2,2,783794,788310,789776,164682,45,619.112,623.628,625.094,28.417,274.427,520.421,246.03,492.023,738.034
"bas","cue",1,"130114","bas_cue_run1_130114","6I","e","v","c","n",1,1,NA,"stay","red","black","black","nonincentive",2000,1,1421,1,1,795809,800309,801730,164682,46,631.127,635.627,637.048,28.417,274.427,520.421,246.03,492.023,738.034
"bas","cue",1,"130114","bas_cue_run1_130114","A2","e","v","c","l",1,1,NA,"switch","red","black","black","nonincentive",3200,1,1036,1,1,806608,811108,812144,164682,47,641.926,646.426,647.462,28.417,274.427,520.421,246.03,492.023,738.034
"bas","cue",1,"130114","bas_cue_run1_130114","B1","o","c","c","n",2,2,NA,"switch","red","black","black","nonincentive",2000,1,1103,2,2,818607,823107,824210,164682,48,653.925,658.425,659.528,28.417,274.427,520.421,246.03,492.023,738.034
"bas","cue",1,"130114","bas_cue_run1_130114","2A","e","v","c","l",1,1,NA,"switch","red","black","black","nonincentive",4400,1,2300,1,1,829406,833906,836206,164682,49,664.724,669.224,671.524,28.417,274.427,520.421,246.03,492.023,738.034
"bas","cue",1,"130114","bas_cue_run1_130114","4D","e","c","i","n",1,2,NA,"switch","red","black","green","nonincentive",3200,1,1579,1,1,842605,847104,848683,164682,50,677.923,682.422,684.001,28.417,274.427,520.421,246.03,492.023,738.034
"bas","cue",1,"130114","bas_cue_run1_130114","H5","o","c","c","l",2,2,NA,"switch","red","black","green","nonincentive",3200,1,1098,2,2,854604,859103,860201,164682,51,689.922,694.421,695.519,28.417,274.427,520.421,246.03,492.023,738.034
"bas","cue",1,"130114","bas_cue_run1_130114","6I","e","v","c","l",1,1,NA,"stay","red","black","black","nonincentive",4400,1,1743,1,1,866603,871102,872845,164682,52,701.921,706.42,708.163,28.417,274.427,520.421,246.03,492.023,738.034
"bas","cue",1,"130114","bas_cue_run1_130114","3E","o","v","i","l",2,1,NA,"stay","red","black","green","nonincentive",4400,1,1083,1,1,879801,884301,885384,164682,53,715.119,719.619,720.702,28.417,274.427,520.421,246.03,492.023,738.034
"bas","cue",1,"130114","bas_cue_run1_130114","H5","o","c","c","n",2,2,NA,"switch","red","black","black","nonincentive",2000,1,1761,2,2,893000,897500,899261,164682,54,728.318,732.818,734.579,28.417,274.427,520.421,246.03,492.023,738.034
"bas","cue",2,"130114","bas_cue_run2_130114","E3","o","v","i","n",2,1,NA,NA,"red","black","green","nonincentive",2000,1,1616,2,2,95631,100130,101746,64512,1,31.119,35.618,37.234,28.419,274.43,520.423,246.032,492.026,738.036
"bas","cue",2,"130114","bas_cue_run2_130114","B2","e","c","i","l",1,2,NA,"switch","red","black","black","nonincentive",4400,1,994,2,2,106430,110929,111923,64512,2,41.918,46.417,47.411,28.419,274.43,520.423,246.032,492.026,738.036
"bas","cue",2,"130114","bas_cue_run2_130114","D4","e","c","i","n",1,2,NA,"switch","red","black","green","nonincentive",4400,1,1406,1,1,119629,124128,125534,64512,3,55.117,59.616,61.022,28.419,274.43,520.423,246.032,492.026,738.036
"bas","cue",2,"130114","bas_cue_run2_130114","4D","e","c","i","l",1,2,NA,"switch","red","black","green","nonincentive",3200,1,1405,2,2,132827,137327,138732,64512,4,68.315,72.815,74.22,28.419,274.43,520.423,246.032,492.026,738.036
"bas","cue",2,"130114","bas_cue_run2_130114","1B","o","c","c","n",2,2,NA,"switch","red","black","black","nonincentive",2000,1,1449,2,2,144843,149343,150792,64512,5,80.331,84.831,86.28,28.419,274.43,520.423,246.032,492.026,738.036
"bas","cue",2,"130114","bas_cue_run2_130114","6I","e","v","c","l",1,1,NA,"switch","red","black","green","nonincentive",2000,1,1730,1,1,155642,160142,161872,64512,6,91.13,95.63,97.36,28.419,274.43,520.423,246.032,492.026,738.036
"bas","cue",2,"130114","bas_cue_run2_130114","B1","o","c","c","n",2,2,NA,"switch","red","black","black","nonincentive",3200,1,1754,2,2,166441,170941,172695,64512,7,101.929,106.429,108.183,28.419,274.43,520.423,246.032,492.026,738.036
"bas","cue",2,"130114","bas_cue_run2_130114","A2","e","v","c","l",1,1,NA,"switch","red","black","black","nonincentive",4400,1,848,1,1,178440,182939,183787,64512,8,113.928,118.427,119.275,28.419,274.43,520.423,246.032,492.026,738.036
"bas","cue",2,"130114","bas_cue_run2_130114","H5","o","c","c","l",2,2,NA,"stay","red","black","black","nonincentive",3200,1,971,2,2,191639,196138,197109,64512,9,127.127,131.626,132.597,28.419,274.43,520.423,246.032,492.026,738.036
"bas","cue",2,"130114","bas_cue_run2_130114","2A","e","v","c","l",1,1,NA,"stay","red","black","black","nonincentive",3200,1,869,1,1,203637,208137,209006,64512,10,139.125,143.625,144.494,28.419,274.43,520.423,246.032,492.026,738.036
"bas","cue",2,"130114","bas_cue_run2_130114","B1","o","c","c","l",2,2,NA,"stay","red","black","black","nonincentive",2000,1,852,2,2,215636,220136,220988,64512,11,151.124,155.624,156.476,28.419,274.43,520.423,246.032,492.026,738.036
"bas","cue",2,"130114","bas_cue_run2_130114","3E","o","v","i","n",2,1,NA,"switch","red","black","green","nonincentive",4400,1,1043,2,2,226435,230935,231978,64512,12,161.923,166.423,167.466,28.419,274.43,520.423,246.032,492.026,738.036
"bas","cue",2,"130114","bas_cue_run2_130114","1B","o","c","c","l",2,2,NA,"switch","red","black","black","nonincentive",3200,1,869,2,2,239634,244134,245003,64512,13,175.122,179.622,180.491,28.419,274.43,520.423,246.032,492.026,738.036
"bas","cue",2,"130114","bas_cue_run2_130114","5H","o","c","c","n",2,2,NA,"switch","red","black","black","nonincentive",4400,1,1230,2,2,251633,256133,257363,64512,14,187.121,191.621,192.851,28.419,274.43,520.423,246.032,492.026,738.036
"bas","cue",2,"130114","bas_cue_run2_130114","E3","o","v","i","l",2,1,NA,"switch","red","black","green","nonincentive",4400,1,1064,1,1,264832,269331,270395,64512,15,200.32,204.819,205.883,28.419,274.43,520.423,246.032,492.026,738.036
"bas","cue",2,"130114","bas_cue_run2_130114","2A","e","v","c","n",1,1,NA,"switch","red","black","black","nonincentive",3200,1,889,1,1,278031,282530,283419,64512,16,213.519,218.018,218.907,28.419,274.43,520.423,246.032,492.026,738.036
"bas","cue",2,"130114","bas_cue_run2_130114","A2","e","v","c","n",1,1,NA,"stay","red","black","black","nonincentive",2000,1,1330,1,1,290029,294529,295859,64512,17,225.517,230.017,231.347,28.419,274.43,520.423,246.032,492.026,738.036
"bas","cue",2,"130114","bas_cue_run2_130114","6I","e","v","c","n",1,1,NA,"stay","red","black","black","nonincentive",2000,1,1676,1,1,300828,305328,307004,64512,18,236.316,240.816,242.492,28.419,274.43,520.423,246.032,492.026,738.036
"bas","cue",2,"130114","bas_cue_run2_130114","B1","o","c","c","n",2,2,NA,NA,"red","black","black","nonincentive",3200,1,1157,2,2,341641,346141,347298,64512,19,277.129,281.629,282.786,28.419,274.43,520.423,246.032,492.026,738.036
"bas","cue",2,"130114","bas_cue_run2_130114","I6","e","v","c","n",1,1,NA,"stay","red","black","green","nonincentive",2000,1,2034,1,1,353640,358140,360174,64512,20,289.128,293.628,295.662,28.419,274.43,520.423,246.032,492.026,738.036
"bas","cue",2,"130114","bas_cue_run2_130114","1B","o","c","c","l",2,2,NA,"switch","red","black","black","nonincentive",4400,0,2082,1,2,364439,368939,371021,64512,21,299.927,304.427,306.509,28.419,274.43,520.423,246.032,492.026,738.036
"bas","cue",2,"130114","bas_cue_run2_130114","B1","o","c","c","l",2,2,NA,"stay","red","black","black","nonincentive",3200,1,862,2,2,377638,382138,383000,64512,22,313.126,317.626,318.488,28.419,274.43,520.423,246.032,492.026,738.036
"bas","cue",2,"130114","bas_cue_run2_130114","3E","o","v","i","l",2,1,NA,"stay","red","black","green","nonincentive",2000,1,1610,1,1,389637,394136,395746,64512,23,325.125,329.624,331.234,28.419,274.43,520.423,246.032,492.026,738.036
"bas","cue",2,"130114","bas_cue_run2_130114","2A","e","v","c","l",1,1,NA,"stay","red","black","black","nonincentive",2000,1,863,1,1,400436,404935,405798,64512,24,335.924,340.423,341.286,28.419,274.43,520.423,246.032,492.026,738.036
"bas","cue",2,"130114","bas_cue_run2_130114","I6","e","v","c","n",1,1,NA,"switch","red","black","black","nonincentive",4400,1,1812,1,1,411235,415734,417546,64512,25,346.723,351.222,353.034,28.419,274.43,520.423,246.032,492.026,738.036
"bas","cue",2,"130114","bas_cue_run2_130114","2A","e","v","c","n",1,1,NA,"stay","red","black","black","nonincentive",3200,1,748,1,1,424434,428933,429681,64512,26,359.922,364.421,365.169,28.419,274.43,520.423,246.032,492.026,738.036
"bas","cue",2,"130114","bas_cue_run2_130114","D4","e","c","i","n",1,2,NA,"stay","red","black","green","nonincentive",4400,1,944,1,1,436432,440932,441876,64512,27,371.92,376.42,377.364,28.419,274.43,520.423,246.032,492.026,738.036
"bas","cue",2,"130114","bas_cue_run2_130114","A2","e","v","c","l",1,1,NA,"switch","red","black","black","nonincentive",2000,1,832,1,1,449631,454131,454963,64512,28,385.119,389.619,390.451,28.419,274.43,520.423,246.032,492.026,738.036
"bas","cue",2,"130114","bas_cue_run2_130114","D4","e","c","i","l",1,2,NA,"stay","red","black","green","nonincentive",4400,0,3126,1,2,460430,464930,468056,64512,29,395.918,400.418,403.544,28.419,274.43,520.423,246.032,492.026,738.036
"bas","cue",2,"130114","bas_cue_run2_130114","2B","e","c","i","n",1,2,NA,"switch","red","black","black","nonincentive",4400,1,943,1,1,473629,478129,479072,64512,30,409.117,413.617,414.56,28.419,274.43,520.423,246.032,492.026,738.036
"bas","cue",2,"130114","bas_cue_run2_130114","H5","o","c","c","l",2,2,NA,"switch","red","black","black","nonincentive",4400,1,1299,2,2,486828,491327,492626,64512,31,422.316,426.815,428.114,28.419,274.43,520.423,246.032,492.026,738.036
"bas","cue",2,"130114","bas_cue_run2_130114","4D","e","c","i","n",1,2,NA,"switch","red","black","green","nonincentive",3200,1,644,1,1,500027,504543,505187,64512,32,435.515,440.031,440.675,28.419,274.43,520.423,246.032,492.026,738.036
"bas","cue",2,"130114","bas_cue_run2_130114","5H","o","c","c","l",2,2,NA,"switch","red","black","green","nonincentive",2000,1,1749,2,2,512042,516542,518291,64512,33,447.53,452.03,453.779,28.419,274.43,520.423,246.032,492.026,738.036
"bas","cue",2,"130114","bas_cue_run2_130114","A2","e","v","c","n",1,1,NA,"switch","red","black","black","nonincentive",3200,1,1583,1,1,522841,527341,528924,64512,34,458.329,462.829,464.412,28.419,274.43,520.423,246.032,492.026,738.036
"bas","cue",2,"130114","bas_cue_run2_130114","1A","o","v","i","n",2,1,NA,"stay","red","black","black","nonincentive",2000,1,1311,2,2,534840,539340,540651,64512,35,470.328,474.828,476.139,28.419,274.43,520.423,246.032,492.026,738.036
"bas","cue",2,"130114","bas_cue_run2_130114","I6","e","v","c","l",1,1,NA,"switch","red","black","black","nonincentive",3200,1,1358,1,1,545639,550139,551497,64512,36,481.127,485.627,486.985,28.419,274.43,520.423,246.032,492.026,738.036
"bas","cue",2,"130114","bas_cue_run2_130114","2A","e","v","c","n",1,1,NA,NA,"red","black","black","nonincentive",2000,1,797,1,1,587635,592135,592932,64512,37,523.123,527.623,528.42,28.419,274.43,520.423,246.032,492.026,738.036
"bas","cue",2,"130114","bas_cue_run2_130114","A2","e","v","c","l",1,1,NA,"switch","red","black","black","nonincentive",4400,1,935,1,1,598434,602934,603869,64512,38,533.922,538.422,539.357,28.419,274.43,520.423,246.032,492.026,738.036
"bas","cue",2,"130114","bas_cue_run2_130114","6I","e","v","c","n",1,1,NA,"switch","red","black","black","nonincentive",3200,1,1570,1,1,611633,616132,617702,64512,39,547.121,551.62,553.19,28.419,274.43,520.423,246.032,492.026,738.036
"bas","cue",2,"130114","bas_cue_run2_130114","5H","o","c","c","n",2,2,NA,"stay","red","black","black","nonincentive",2000,1,1105,2,2,623632,628131,629236,64512,40,559.12,563.619,564.724,28.419,274.43,520.423,246.032,492.026,738.036
"bas","cue",2,"130114","bas_cue_run2_130114","B1","o","c","c","n",2,2,NA,"stay","red","black","black","nonincentive",3200,1,1790,2,2,634431,638930,640720,64512,41,569.919,574.418,576.208,28.419,274.43,520.423,246.032,492.026,738.036
"bas","cue",2,"130114","bas_cue_run2_130114","4D","e","c","i","l",1,2,NA,"switch","red","black","green","nonincentive",4400,1,1863,2,2,646430,650929,652792,64512,42,581.918,586.417,588.28,28.419,274.43,520.423,246.032,492.026,738.036
"bas","cue",2,"130114","bas_cue_run2_130114","1B","o","c","c","l",2,2,NA,"stay","red","black","black","nonincentive",4400,1,963,2,2,659628,664128,665091,64512,43,595.116,599.616,600.579,28.419,274.43,520.423,246.032,492.026,738.036
"bas","cue",2,"130114","bas_cue_run2_130114","H5","o","c","c","l",2,2,NA,"stay","red","black","black","nonincentive",2000,1,1156,2,2,672827,677327,678483,64512,44,608.315,612.815,613.971,28.419,274.43,520.423,246.032,492.026,738.036
"bas","cue",2,"130114","bas_cue_run2_130114","4D","e","c","i","n",1,2,NA,"switch","red","black","green","nonincentive",3200,1,1538,1,1,683643,688142,689680,64512,45,619.131,623.63,625.168,28.419,274.43,520.423,246.032,492.026,738.036
"bas","cue",2,"130114","bas_cue_run2_130114","A1","o","v","i","l",2,1,NA,"switch","red","black","black","nonincentive",2000,1,588,1,1,695642,700141,700729,64512,46,631.13,635.629,636.217,28.419,274.43,520.423,246.032,492.026,738.036
"bas","cue",2,"130114","bas_cue_run2_130114","A2","e","v","c","n",1,1,NA,"switch","red","black","black","nonincentive",2000,1,832,1,1,706441,710940,711772,64512,47,641.929,646.428,647.26,28.419,274.43,520.423,246.032,492.026,738.036
"bas","cue",2,"130114","bas_cue_run2_130114","D4","e","c","i","l",1,2,NA,"switch","red","black","green","nonincentive",4400,1,792,2,2,717240,721739,722531,64512,48,652.728,657.227,658.019,28.419,274.43,520.423,246.032,492.026,738.036
