"session","task","run","subj","name","trial.type","iti","cue","probe","target.color","location","cue.cresp","target.cresp","cue.rt","cue.acc","cue.resp","target.rt","target.acc","target.resp","trialacc","time.cue.onset.abs","time.target.onset.abs","time.target.rt.abs","time.cue.rt.abs","time.scan.start","trial.num","acc","time.cue.onset","time.cue.rt","time.target.onset","time.target.rt","time.block1.on","time.block2.on","time.block3.on","time.block1.off","time.block2.off","time.block3.off"
"bas","axc",1,"130114","bas_axc_run1_130114","BY",2800,"U","D","white","center",1,1,363,1,1,531,1,1,1,124186,128986,129517,124549,93572,1,1,30.614,30.977,35.414,35.945,28.415,260.01,491.621,231.629,463.224,694.836
"bas","axc",1,"130114","bas_axc_run1_130114","AY",4000,"A","N","white","center",1,1,488,1,1,671,1,1,1,132586,137385,138056,133074,93572,2,1,39.014,39.502,43.813,44.484,28.415,260.01,491.621,231.629,463.224,694.836
"bas","axc",1,"130114","bas_axc_run1_130114","Ang",2800,"A","3","white","center",1,NA,412,1,1,0,1,NA,1,142185,146984,0,142597,93572,3,1,48.613,49.025,53.412,-93.572,28.415,260.01,491.621,231.629,463.224,694.836
"bas","axc",1,"130114","bas_axc_run1_130114","AX",1600,"A","X","white","center",1,2,380,1,1,582,1,2,1,150584,155383,155965,150964,93572,4,1,57.012,57.392,61.811,62.393,28.415,260.01,491.621,231.629,463.224,694.836
"bas","axc",1,"130114","bas_axc_run1_130114","Bng",2800,"T","9","white","center",1,NA,372,1,1,531,0,1,0,157783,162583,163114,158155,93572,5,0,64.211,64.583,69.011,69.542,28.415,260.01,491.621,231.629,463.224,694.836
"bas","axc",1,"130114","bas_axc_run1_130114","AX",1600,"A","X","white","center",1,2,384,1,1,364,1,2,1,166182,170982,171346,166566,93572,6,1,72.61,72.994,77.41,77.774,28.415,260.01,491.621,231.629,463.224,694.836
"bas","axc",1,"130114","bas_axc_run1_130114","AX",4000,"A","X","white","center",1,2,371,1,1,404,1,2,1,173382,178181,178585,173753,93572,7,1,79.81,80.181,84.609,85.013,28.415,260.01,491.621,231.629,463.224,694.836
"bas","axc",1,"130114","bas_axc_run1_130114","BY",4000,"D","T","white","center",1,1,585,1,1,398,1,1,1,182981,187780,188178,183566,93572,8,1,89.409,89.994,94.208,94.606,28.415,260.01,491.621,231.629,463.224,694.836
"bas","axc",1,"130114","bas_axc_run1_130114","BY",1600,"C","D","white","center",1,1,450,1,1,371,1,1,1,192580,197379,197750,193030,93572,9,1,99.008,99.458,103.807,104.178,28.415,260.01,491.621,231.629,463.224,694.836
"bas","axc",1,"130114","bas_axc_run1_130114","Bng",1600,"T","6","white","center",1,NA,545,1,1,0,1,NA,1,199779,204579,0,200324,93572,10,1,106.207,106.752,111.007,-93.572,28.415,260.01,491.621,231.629,463.224,694.836
"bas","axc",1,"130114","bas_axc_run1_130114","AX",2800,"A","X","white","center",1,2,468,1,1,361,1,2,1,206979,211778,212139,207447,93572,11,1,113.407,113.875,118.206,118.567,28.415,260.01,491.621,231.629,463.224,694.836
"bas","axc",1,"130114","bas_axc_run1_130114","BY",4000,"M","P","white","center",1,1,490,1,1,560,1,1,1,215378,220194,220754,215868,93572,12,1,121.806,122.296,126.622,127.182,28.415,260.01,491.621,231.629,463.224,694.836
"bas","axc",1,"130114","bas_axc_run1_130114","Ang",2800,"A","1","white","center",1,NA,390,1,1,0,1,NA,1,224994,229793,0,225384,93572,13,1,131.422,131.812,136.221,-93.572,28.415,260.01,491.621,231.629,463.224,694.836
"bas","axc",1,"130114","bas_axc_run1_130114","BY",1600,"P","M","white","center",1,1,361,1,1,522,1,1,1,233393,238192,238714,233754,93572,14,1,139.821,140.182,144.62,145.142,28.415,260.01,491.621,231.629,463.224,694.836
"bas","axc",1,"130114","bas_axc_run1_130114","AY",1600,"A","D","white","center",1,1,577,1,1,545,1,1,1,240592,245392,245937,241169,93572,15,1,147.02,147.597,151.82,152.365,28.415,260.01,491.621,231.629,463.224,694.836
"bas","axc",1,"130114","bas_axc_run1_130114","BX",1600,"U","X","white","center",1,1,598,1,1,694,0,2,0,247791,252591,253285,248389,93572,16,0,154.219,154.817,159.019,159.713,28.415,260.01,491.621,231.629,463.224,694.836
"bas","axc",1,"130114","bas_axc_run1_130114","BY",4000,"N","P","white","center",1,1,506,1,1,739,1,1,1,254991,259790,260529,255497,93572,17,1,161.419,161.925,166.218,166.957,28.415,260.01,491.621,231.629,463.224,694.836
"bas","axc",1,"130114","bas_axc_run1_130114","BY",4000,"F","C","white","center",1,1,520,1,1,427,1,1,1,264590,269389,269816,265110,93572,18,1,171.018,171.538,175.817,176.244,28.415,260.01,491.621,231.629,463.224,694.836
"bas","axc",1,"130114","bas_axc_run1_130114","AX",2800,"A","X","white","center",1,2,529,1,1,311,1,2,1,274189,278989,279300,274718,93572,19,1,180.617,181.146,185.417,185.728,28.415,260.01,491.621,231.629,463.224,694.836
"bas","axc",1,"130114","bas_axc_run1_130114","BY",4000,"F","M","white","center",1,1,535,1,1,497,1,1,1,282588,287388,287885,283123,93572,20,1,189.016,189.551,193.816,194.313,28.415,260.01,491.621,231.629,463.224,694.836
"bas","axc",1,"130114","bas_axc_run1_130114","AX",4000,"A","X","white","center",1,2,565,1,1,358,1,2,1,292187,296987,297345,292752,93572,21,1,198.615,199.18,203.415,203.773,28.415,260.01,491.621,231.629,463.224,694.836
"bas","axc",1,"130114","bas_axc_run1_130114","AX",2800,"A","X","white","center",1,2,437,1,1,0,0,NA,0,301786,306586,0,302223,93572,22,0,208.214,208.651,213.014,-93.572,28.415,260.01,491.621,231.629,463.224,694.836
"bas","axc",1,"130114","bas_axc_run1_130114","AX",1600,"A","X","white","center",1,2,346,1,1,681,1,2,1,310186,314985,315666,310532,93572,23,1,216.614,216.96,221.413,222.094,28.415,260.01,491.621,231.629,463.224,694.836
"bas","axc",1,"130114","bas_axc_run1_130114","BX",2800,"M","X","white","center",1,1,458,1,1,634,1,1,1,317385,322185,322819,317843,93572,24,1,223.813,224.271,228.613,229.247,28.415,260.01,491.621,231.629,463.224,694.836
"bas","axc",1,"130114","bas_axc_run1_130114","AX",2800,"A","X","white","center",1,2,340,1,1,382,1,2,1,355781,360581,360963,356121,93572,25,1,262.209,262.549,267.009,267.391,28.415,260.01,491.621,231.629,463.224,694.836
"bas","axc",1,"130114","bas_axc_run1_130114","AY",1600,"A","T","white","center",1,1,298,1,1,629,1,1,1,364181,368980,369609,364479,93572,26,1,270.609,270.907,275.408,276.037,28.415,260.01,491.621,231.629,463.224,694.836
"bas","axc",1,"130114","bas_axc_run1_130114","BY",4000,"H","U","white","center",1,1,442,1,1,468,1,1,1,371380,376179,376647,371822,93572,27,1,277.808,278.25,282.607,283.075,28.415,260.01,491.621,231.629,463.224,694.836
"bas","axc",1,"130114","bas_axc_run1_130114","BX",1600,"C","X","white","center",1,1,357,1,1,0,0,NA,0,380979,385779,0,381336,93572,28,0,287.407,287.764,292.207,-93.572,28.415,260.01,491.621,231.629,463.224,694.836
"bas","axc",1,"130114","bas_axc_run1_130114","AX",2800,"A","X","white","center",1,2,416,1,1,359,1,2,1,388178,392978,393337,388594,93572,29,1,294.606,295.022,299.406,299.765,28.415,260.01,491.621,231.629,463.224,694.836
"bas","axc",1,"130114","bas_axc_run1_130114","AX",1600,"A","X","white","center",1,2,578,1,1,900,0,1,0,396578,401394,402294,397156,93572,30,0,303.006,303.584,307.822,308.722,28.415,260.01,491.621,231.629,463.224,694.836
"bas","axc",1,"130114","bas_axc_run1_130114","Ang",2800,"A","5","white","center",1,NA,462,1,1,0,1,NA,1,403794,408593,0,404256,93572,31,1,310.222,310.684,315.021,-93.572,28.415,260.01,491.621,231.629,463.224,694.836
"bas","axc",1,"130114","bas_axc_run1_130114","AX",4000,"A","X","white","center",1,2,510,1,1,356,1,2,1,412193,416992,417348,412703,93572,32,1,318.621,319.131,323.42,323.776,28.415,260.01,491.621,231.629,463.224,694.836
"bas","axc",1,"130114","bas_axc_run1_130114","AX",1600,"A","X","white","center",1,2,406,1,1,402,1,2,1,421792,426591,426993,422198,93572,33,1,328.22,328.626,333.019,333.421,28.415,260.01,491.621,231.629,463.224,694.836
"bas","axc",1,"130114","bas_axc_run1_130114","BY",2800,"C","M","white","center",1,1,0,0,NA,565,1,1,0,428991,433791,434356,0,93572,34,0,335.419,-93.572,340.219,340.784,28.415,260.01,491.621,231.629,463.224,694.836
"bas","axc",1,"130114","bas_axc_run1_130114","AX",4000,"A","X","white","center",1,2,530,1,1,381,1,2,1,437390,442190,442571,437920,93572,35,1,343.818,344.348,348.618,348.999,28.415,260.01,491.621,231.629,463.224,694.836
"bas","axc",1,"130114","bas_axc_run1_130114","AY",4000,"A","H","white","center",1,1,484,1,1,486,1,1,1,446990,451789,452275,447474,93572,36,1,353.418,353.902,358.217,358.703,28.415,260.01,491.621,231.629,463.224,694.836
"bas","axc",1,"130114","bas_axc_run1_130114","BY",4000,"H","T","white","center",1,1,983,1,1,291,1,1,1,456589,461388,461679,457572,93572,37,1,363.017,364,367.816,368.107,28.415,260.01,491.621,231.629,463.224,694.836
"bas","axc",1,"130114","bas_axc_run1_130114","BY",4000,"M","F","white","center",1,1,521,1,1,307,1,1,1,466188,470987,471294,466709,93572,38,1,372.616,373.137,377.415,377.722,28.415,260.01,491.621,231.629,463.224,694.836
"bas","axc",1,"130114","bas_axc_run1_130114","BY",1600,"U","P","white","center",1,1,956,1,1,339,1,1,1,475787,480586,480925,476743,93572,39,1,382.215,383.171,387.014,387.353,28.415,260.01,491.621,231.629,463.224,694.836
"bas","axc",1,"130114","bas_axc_run1_130114","AX",2800,"A","X","white","center",1,2,514,1,1,366,1,2,1,482986,487786,488152,483500,93572,40,1,389.414,389.928,394.214,394.58,28.415,260.01,491.621,231.629,463.224,694.836
"bas","axc",1,"130114","bas_axc_run1_130114","Bng",2800,"H","8","white","center",1,NA,417,1,1,647,0,1,0,491385,496185,496832,491802,93572,41,0,397.813,398.23,402.613,403.26,28.415,260.01,491.621,231.629,463.224,694.836
"bas","axc",1,"130114","bas_axc_run1_130114","AX",2800,"A","X","white","center",1,2,362,1,1,318,1,2,1,499785,504584,504902,500147,93572,42,1,406.213,406.575,411.012,411.33,28.415,260.01,491.621,231.629,463.224,694.836
"bas","axc",1,"130114","bas_axc_run1_130114","BY",1600,"T","M","white","center",1,1,577,1,1,591,1,1,1,508184,512983,513574,508761,93572,43,1,414.612,415.189,419.411,420.002,28.415,260.01,491.621,231.629,463.224,694.836
"bas","axc",1,"130114","bas_axc_run1_130114","BX",4000,"F","X","white","center",1,1,0,0,NA,0,0,NA,0,515383,520183,0,0,93572,44,0,421.811,-93.572,426.611,-93.572,28.415,260.01,491.621,231.629,463.224,694.836
"bas","axc",1,"130114","bas_axc_run1_130114","Bng",1600,"M","9","white","center",1,NA,562,1,1,0,1,NA,1,524982,529782,0,525544,93572,45,1,431.41,431.972,436.21,-93.572,28.415,260.01,491.621,231.629,463.224,694.836
"bas","axc",1,"130114","bas_axc_run1_130114","BY",4000,"P","H","white","center",1,1,344,1,1,388,1,1,1,532182,536981,537369,532526,93572,46,1,438.61,438.954,443.409,443.797,28.415,260.01,491.621,231.629,463.224,694.836
"bas","axc",1,"130114","bas_axc_run1_130114","BY",2800,"N","U","white","center",1,1,523,1,1,436,1,1,1,541781,546580,547016,542304,93572,47,1,448.209,448.732,453.008,453.444,28.415,260.01,491.621,231.629,463.224,694.836
"bas","axc",1,"130114","bas_axc_run1_130114","Ang",1600,"A","9","white","center",1,NA,0,0,NA,0,1,NA,0,550180,554980,0,0,93572,48,0,456.608,-93.572,461.408,-93.572,28.415,260.01,491.621,231.629,463.224,694.836
"bas","axc",1,"130114","bas_axc_run1_130114","AX",1600,"A","X","white","center",1,2,472,1,1,303,1,2,1,587393,592193,592496,587865,93572,49,1,493.821,494.293,498.621,498.924,28.415,260.01,491.621,231.629,463.224,694.836
"bas","axc",1,"130114","bas_axc_run1_130114","BX",4000,"P","X","white","center",1,1,391,1,1,735,1,1,1,594592,599392,600127,594983,93572,50,1,501.02,501.411,505.82,506.555,28.415,260.01,491.621,231.629,463.224,694.836
"bas","axc",1,"130114","bas_axc_run1_130114","BY",2800,"T","N","white","center",1,1,383,1,1,532,1,1,1,604192,608991,609523,604575,93572,51,1,510.62,511.003,515.419,515.951,28.415,260.01,491.621,231.629,463.224,694.836
"bas","axc",1,"130114","bas_axc_run1_130114","BY",1600,"D","N","white","center",1,1,491,1,1,268,1,1,1,612591,617390,617658,613082,93572,52,1,519.019,519.51,523.818,524.086,28.415,260.01,491.621,231.629,463.224,694.836
"bas","axc",1,"130114","bas_axc_run1_130114","AX",4000,"A","X","white","center",1,2,574,1,1,530,1,2,1,619790,624590,625120,620364,93572,53,1,526.218,526.792,531.018,531.548,28.415,260.01,491.621,231.629,463.224,694.836
"bas","axc",1,"130114","bas_axc_run1_130114","BY",1600,"T","M","white","center",1,1,416,1,1,335,1,1,1,629389,634189,634524,629805,93572,54,1,535.817,536.233,540.617,540.952,28.415,260.01,491.621,231.629,463.224,694.836
"bas","axc",1,"130114","bas_axc_run1_130114","AX",4000,"A","X","white","center",1,2,616,1,1,1002,0,1,0,636589,641388,642390,637205,93572,55,0,543.017,543.633,547.816,548.818,28.415,260.01,491.621,231.629,463.224,694.836
"bas","axc",1,"130114","bas_axc_run1_130114","Bng",2800,"P","4","white","center",1,NA,419,1,1,0,1,NA,1,646188,650987,0,646607,93572,56,1,552.616,553.035,557.415,-93.572,28.415,260.01,491.621,231.629,463.224,694.836
"bas","axc",1,"130114","bas_axc_run1_130114","Ang",1600,"A","7","white","center",1,NA,596,1,1,0,1,NA,1,654587,659386,0,655183,93572,57,1,561.015,561.611,565.814,-93.572,28.415,260.01,491.621,231.629,463.224,694.836
"bas","axc",1,"130114","bas_axc_run1_130114","AX",2800,"A","X","white","center",1,2,1003,1,1,1209,0,1,0,661786,666586,667795,662789,93572,58,0,568.214,569.217,573.014,574.223,28.415,260.01,491.621,231.629,463.224,694.836
"bas","axc",1,"130114","bas_axc_run1_130114","Ang",4000,"A","3","white","center",1,NA,348,1,1,0,1,NA,1,670185,674985,0,670533,93572,59,1,576.613,576.961,581.413,-93.572,28.415,260.01,491.621,231.629,463.224,694.836
"bas","axc",1,"130114","bas_axc_run1_130114","BY",2800,"F","C","white","center",1,1,499,1,1,566,1,1,1,679785,684584,685150,680284,93572,60,1,586.213,586.712,591.012,591.578,28.415,260.01,491.621,231.629,463.224,694.836
"bas","axc",1,"130114","bas_axc_run1_130114","BY",4000,"F","M","white","center",1,1,478,1,1,418,1,1,1,688184,692983,693401,688662,93572,61,1,594.612,595.09,599.411,599.829,28.415,260.01,491.621,231.629,463.224,694.836
"bas","axc",1,"130114","bas_axc_run1_130114","BY",1600,"T","N","white","center",1,1,495,1,1,496,1,1,1,697783,702582,703078,698278,93572,62,1,604.211,604.706,609.01,609.506,28.415,260.01,491.621,231.629,463.224,694.836
"bas","axc",1,"130114","bas_axc_run1_130114","AX",4000,"A","X","white","center",1,2,0,0,NA,772,0,1,0,704982,709782,710554,0,93572,63,0,611.41,-93.572,616.21,616.982,28.415,260.01,491.621,231.629,463.224,694.836
"bas","axc",1,"130114","bas_axc_run1_130114","AX",2800,"A","X","white","center",1,2,489,1,1,455,1,2,1,714581,719381,719836,715070,93572,64,1,621.009,621.498,625.809,626.264,28.415,260.01,491.621,231.629,463.224,694.836
"bas","axc",1,"130114","bas_axc_run1_130114","Bng",4000,"F","5","white","center",1,NA,419,1,1,0,1,NA,1,722981,727780,0,723400,93572,65,1,629.409,629.828,634.208,-93.572,28.415,260.01,491.621,231.629,463.224,694.836
"bas","axc",1,"130114","bas_axc_run1_130114","AX",4000,"A","X","white","center",1,2,632,1,1,580,1,2,1,732580,737379,737959,733212,93572,66,1,639.008,639.64,643.807,644.387,28.415,260.01,491.621,231.629,463.224,694.836
"bas","axc",1,"130114","bas_axc_run1_130114","AY",1600,"A","T","white","center",1,1,404,1,1,502,1,1,1,742179,746978,747480,742583,93572,67,1,648.607,649.011,653.406,653.908,28.415,260.01,491.621,231.629,463.224,694.836
"bas","axc",1,"130114","bas_axc_run1_130114","AY",2800,"A","D","white","center",1,1,0,0,NA,454,1,1,0,749378,754178,754632,0,93572,68,0,655.806,-93.572,660.606,661.06,28.415,260.01,491.621,231.629,463.224,694.836
"bas","axc",1,"130114","bas_axc_run1_130114","AX",2800,"A","X","white","center",1,2,495,1,1,0,0,NA,0,757794,762594,0,758289,93572,69,0,664.222,664.717,669.022,-93.572,28.415,260.01,491.621,231.629,463.224,694.836
"bas","axc",1,"130114","bas_axc_run1_130114","BX",1600,"C","X","white","center",1,1,293,1,1,625,1,1,1,766193,770993,771618,766486,93572,70,1,672.621,672.914,677.421,678.046,28.415,260.01,491.621,231.629,463.224,694.836
"bas","axc",1,"130114","bas_axc_run1_130114","BY",2800,"H","T","white","center",1,1,295,1,1,366,1,1,1,773393,778192,778558,773688,93572,71,1,679.821,680.116,684.62,684.986,28.415,260.01,491.621,231.629,463.224,694.836
"bas","axc",1,"130114","bas_axc_run1_130114","BY",1600,"M","P","white","center",1,1,374,1,1,552,1,1,1,781792,786591,787143,782166,93572,72,1,688.22,688.594,693.019,693.571,28.415,260.01,491.621,231.629,463.224,694.836
"bas","axc",2,"130114","bas_axc_run2_130114","BY",4000,"N","D","white","center",1,1,521,1,1,424,1,1,1,69716,74516,74940,70237,39100,1,1,30.616,31.137,35.416,35.84,28.417,260.012,491.607,231.631,463.226,694.838
"bas","axc",2,"130114","bas_axc_run2_130114","BY",2800,"F","D","white","center",1,1,442,1,1,378,1,1,1,79316,84115,84493,79758,39100,2,1,40.216,40.658,45.015,45.393,28.417,260.012,491.607,231.631,463.226,694.838
"bas","axc",2,"130114","bas_axc_run2_130114","BY",4000,"P","C","white","center",1,1,315,1,1,456,1,1,1,87715,92514,92970,88030,39100,3,1,48.615,48.93,53.414,53.87,28.417,260.012,491.607,231.631,463.226,694.838
"bas","axc",2,"130114","bas_axc_run2_130114","AY",2800,"A","U","white","center",1,1,568,1,1,523,1,1,1,97314,102113,102636,97882,39100,4,1,58.214,58.782,63.013,63.536,28.417,260.012,491.607,231.631,463.226,694.838
"bas","axc",2,"130114","bas_axc_run2_130114","AX",4000,"A","X","white","center",1,2,438,1,1,307,1,2,1,105713,110513,110820,106151,39100,5,1,66.613,67.051,71.413,71.72,28.417,260.012,491.607,231.631,463.226,694.838
"bas","axc",2,"130114","bas_axc_run2_130114","AY",1600,"A","M","white","center",1,1,293,1,1,521,1,1,1,115312,120112,120633,115605,39100,6,1,76.212,76.505,81.012,81.533,28.417,260.012,491.607,231.631,463.226,694.838
"bas","axc",2,"130114","bas_axc_run2_130114","AX",4000,"A","X","white","center",1,2,419,1,1,419,1,2,1,122512,127311,127730,122931,39100,7,1,83.412,83.831,88.211,88.63,28.417,260.012,491.607,231.631,463.226,694.838
"bas","axc",2,"130114","bas_axc_run2_130114","BX",1600,"D","X","white","center",1,1,519,1,1,570,1,1,1,132111,136910,137480,132630,39100,8,1,93.011,93.53,97.81,98.38,28.417,260.012,491.607,231.631,463.226,694.838
"bas","axc",2,"130114","bas_axc_run2_130114","AX",1600,"A","X","white","center",1,2,405,1,1,431,1,2,1,139310,144110,144541,139715,39100,9,1,100.21,100.615,105.01,105.441,28.417,260.012,491.607,231.631,463.226,694.838
"bas","axc",2,"130114","bas_axc_run2_130114","BY",2800,"D","U","white","center",1,1,518,1,1,0,0,NA,0,146509,151309,0,147027,39100,10,0,107.409,107.927,112.209,-39.1,28.417,260.012,491.607,231.631,463.226,694.838
"bas","axc",2,"130114","bas_axc_run2_130114","AX",1600,"A","X","white","center",1,2,458,1,1,314,1,2,1,154909,159708,160022,155367,39100,11,1,115.809,116.267,120.608,120.922,28.417,260.012,491.607,231.631,463.226,694.838
"bas","axc",2,"130114","bas_axc_run2_130114","AX",2800,"A","X","white","center",1,2,327,1,1,372,1,2,1,162108,166907,167279,162435,39100,12,1,123.008,123.335,127.807,128.179,28.417,260.012,491.607,231.631,463.226,694.838
"bas","axc",2,"130114","bas_axc_run2_130114","BY",1600,"P","T","white","center",1,1,464,1,1,794,1,1,1,170507,175307,176101,170971,39100,13,1,131.407,131.871,136.207,137.001,28.417,260.012,491.607,231.631,463.226,694.838
"bas","axc",2,"130114","bas_axc_run2_130114","Ang",2800,"A","2","white","center",1,NA,319,1,1,0,1,NA,1,177706,182506,0,178025,39100,14,1,138.606,138.925,143.406,-39.1,28.417,260.012,491.607,231.631,463.226,694.838
"bas","axc",2,"130114","bas_axc_run2_130114","AX",2800,"A","X","white","center",1,2,481,1,1,830,1,2,1,186106,190905,191735,186587,39100,15,1,147.006,147.487,151.805,152.635,28.417,260.012,491.607,231.631,463.226,694.838
"bas","axc",2,"130114","bas_axc_run2_130114","BY",2800,"D","C","white","center",1,1,309,1,1,344,1,1,1,194505,199321,199665,194814,39100,16,1,155.405,155.714,160.221,160.565,28.417,260.012,491.607,231.631,463.226,694.838
"bas","axc",2,"130114","bas_axc_run2_130114","BY",4000,"H","C","white","center",1,1,420,1,1,358,1,1,1,202921,207720,208078,203341,39100,17,1,163.821,164.241,168.62,168.978,28.417,260.012,491.607,231.631,463.226,694.838
"bas","axc",2,"130114","bas_axc_run2_130114","AX",4000,"A","X","white","center",1,2,281,1,1,326,1,2,1,212520,217319,217645,212801,39100,18,1,173.42,173.701,178.219,178.545,28.417,260.012,491.607,231.631,463.226,694.838
"bas","axc",2,"130114","bas_axc_run2_130114","BX",4000,"H","X","white","center",1,1,242,1,1,0,0,NA,0,222119,226919,0,222361,39100,19,0,183.019,183.261,187.819,-39.1,28.417,260.012,491.607,231.631,463.226,694.838
"bas","axc",2,"130114","bas_axc_run2_130114","AX",1600,"A","X","white","center",1,2,296,1,1,293,1,2,1,231718,236518,236811,232014,39100,20,1,192.618,192.914,197.418,197.711,28.417,260.012,491.607,231.631,463.226,694.838
"bas","axc",2,"130114","bas_axc_run2_130114","Bng",4000,"H","1","white","center",1,NA,268,1,1,0,1,NA,1,238917,243717,0,239185,39100,21,1,199.817,200.085,204.617,-39.1,28.417,260.012,491.607,231.631,463.226,694.838
"bas","axc",2,"130114","bas_axc_run2_130114","Ang",2800,"A","6","white","center",1,NA,467,1,1,351,0,2,0,248517,253316,253667,248984,39100,22,0,209.417,209.884,214.216,214.567,28.417,260.012,491.607,231.631,463.226,694.838
"bas","axc",2,"130114","bas_axc_run2_130114","Bng",1600,"F","3","white","center",1,NA,401,1,1,0,1,NA,1,256916,261715,0,257317,39100,23,1,217.816,218.217,222.615,-39.1,28.417,260.012,491.607,231.631,463.226,694.838
"bas","axc",2,"130114","bas_axc_run2_130114","BY",1600,"C","N","white","center",1,1,485,1,1,663,1,1,1,264115,268915,269578,264600,39100,24,1,225.015,225.5,229.815,230.478,28.417,260.012,491.607,231.631,463.226,694.838
"bas","axc",2,"130114","bas_axc_run2_130114","BX",4000,"T","X","white","center",1,1,348,1,1,811,1,1,1,301312,306111,306922,301660,39100,25,1,262.212,262.56,267.011,267.822,28.417,260.012,491.607,231.631,463.226,694.838
"bas","axc",2,"130114","bas_axc_run2_130114","BY",2800,"M","N","white","center",1,1,381,1,1,529,1,1,1,310911,315710,316239,311292,39100,26,1,271.811,272.192,276.61,277.139,28.417,260.012,491.607,231.631,463.226,694.838
"bas","axc",2,"130114","bas_axc_run2_130114","Ang",2800,"A","8","white","center",1,NA,850,1,1,0,1,NA,1,319310,324109,0,320160,39100,27,1,280.21,281.06,285.009,-39.1,28.417,260.012,491.607,231.631,463.226,694.838
"bas","axc",2,"130114","bas_axc_run2_130114","AX",4000,"A","X","white","center",1,2,334,1,1,297,1,2,1,327709,332509,332806,328043,39100,28,1,288.609,288.943,293.409,293.706,28.417,260.012,491.607,231.631,463.226,694.838
"bas","axc",2,"130114","bas_axc_run2_130114","Bng",2800,"U","2","white","center",1,NA,0,0,NA,0,1,NA,0,337308,342108,0,0,39100,29,0,298.208,-39.1,303.008,-39.1,28.417,260.012,491.607,231.631,463.226,694.838
"bas","axc",2,"130114","bas_axc_run2_130114","BY",1600,"T","H","white","center",1,1,370,1,1,501,1,1,1,345707,350507,351008,346077,39100,30,1,306.607,306.977,311.407,311.908,28.417,260.012,491.607,231.631,463.226,694.838
"bas","axc",2,"130114","bas_axc_run2_130114","AX",4000,"A","X","white","center",1,2,579,1,1,475,1,2,1,352907,357706,358181,353486,39100,31,1,313.807,314.386,318.606,319.081,28.417,260.012,491.607,231.631,463.226,694.838
"bas","axc",2,"130114","bas_axc_run2_130114","BY",4000,"H","F","white","center",1,1,423,1,1,0,0,NA,0,362506,367305,0,362929,39100,32,0,323.406,323.829,328.205,-39.1,28.417,260.012,491.607,231.631,463.226,694.838
"bas","axc",2,"130114","bas_axc_run2_130114","BY",1600,"F","H","white","center",1,1,506,1,1,409,1,1,1,372105,376905,377314,372611,39100,33,1,333.005,333.511,337.805,338.214,28.417,260.012,491.607,231.631,463.226,694.838
"bas","axc",2,"130114","bas_axc_run2_130114","BY",1600,"U","T","white","center",1,1,373,1,1,374,1,1,1,379321,384121,384495,379694,39100,34,1,340.221,340.594,345.021,345.395,28.417,260.012,491.607,231.631,463.226,694.838
"bas","axc",2,"130114","bas_axc_run2_130114","AX",1600,"A","X","white","center",1,2,506,1,1,412,0,1,0,386520,391320,391732,387026,39100,35,0,347.42,347.926,352.22,352.632,28.417,260.012,491.607,231.631,463.226,694.838
"bas","axc",2,"130114","bas_axc_run2_130114","Ang",2800,"A","4","white","center",1,NA,306,1,1,0,1,NA,1,393720,398519,0,394026,39100,36,1,354.62,354.926,359.419,-39.1,28.417,260.012,491.607,231.631,463.226,694.838
"bas","axc",2,"130114","bas_axc_run2_130114","AX",4000,"A","X","white","center",1,2,0,0,NA,782,1,2,0,402119,406918,407700,0,39100,37,0,363.019,-39.1,367.818,368.6,28.417,260.012,491.607,231.631,463.226,694.838
"bas","axc",2,"130114","bas_axc_run2_130114","AX",4000,"A","X","white","center",1,2,360,1,1,487,1,2,1,411718,416518,417005,412078,39100,38,1,372.618,372.978,377.418,377.905,28.417,260.012,491.607,231.631,463.226,694.838
"bas","axc",2,"130114","bas_axc_run2_130114","AX",1600,"A","X","white","center",1,2,355,1,1,336,1,2,1,421317,426117,426453,421672,39100,39,1,382.217,382.572,387.017,387.353,28.417,260.012,491.607,231.631,463.226,694.838
"bas","axc",2,"130114","bas_axc_run2_130114","AX",4000,"A","X","white","center",1,2,318,1,1,297,1,2,1,428516,433316,433613,428834,39100,40,1,389.416,389.734,394.216,394.513,28.417,260.012,491.607,231.631,463.226,694.838
"bas","axc",2,"130114","bas_axc_run2_130114","BY",2800,"U","F","white","center",1,1,539,1,1,0,0,NA,0,438116,442915,0,438655,39100,41,0,399.016,399.555,403.815,-39.1,28.417,260.012,491.607,231.631,463.226,694.838
"bas","axc",2,"130114","bas_axc_run2_130114","BY",1600,"C","F","white","center",1,1,419,1,1,365,1,1,1,446515,451314,451679,446934,39100,42,1,407.415,407.834,412.214,412.579,28.417,260.012,491.607,231.631,463.226,694.838
"bas","axc",2,"130114","bas_axc_run2_130114","AY",2800,"A","P","white","center",1,1,519,1,1,446,1,1,1,453714,458514,458960,454233,39100,43,1,414.614,415.133,419.414,419.86,28.417,260.012,491.607,231.631,463.226,694.838
"bas","axc",2,"130114","bas_axc_run2_130114","AY",1600,"A","C","white","center",1,1,0,0,NA,475,1,1,0,462113,466913,467388,0,39100,44,0,423.013,-39.1,427.813,428.288,28.417,260.012,491.607,231.631,463.226,694.838
"bas","axc",2,"130114","bas_axc_run2_130114","AX",4000,"A","X","white","center",1,2,824,1,1,374,1,2,1,469313,474112,474486,470137,39100,45,1,430.213,431.037,435.012,435.386,28.417,260.012,491.607,231.631,463.226,694.838
"bas","axc",2,"130114","bas_axc_run2_130114","Bng",2800,"P","7","white","center",1,NA,371,1,1,0,1,NA,1,478912,483711,0,479283,39100,46,1,439.812,440.183,444.611,-39.1,28.417,260.012,491.607,231.631,463.226,694.838
"bas","axc",2,"130114","bas_axc_run2_130114","BY",1600,"N","H","white","center",1,1,320,1,1,0,0,NA,0,487311,492110,0,487631,39100,47,0,448.211,448.531,453.01,-39.1,28.417,260.012,491.607,231.631,463.226,694.838
"bas","axc",2,"130114","bas_axc_run2_130114","BX",2800,"N","X","white","center",1,1,396,1,1,736,1,1,1,494510,499310,500046,494906,39100,48,1,455.41,455.806,460.21,460.946,28.417,260.012,491.607,231.631,463.226,694.838
"bas","axc",2,"130114","bas_axc_run2_130114","AX",2800,"A","X","white","center",1,2,391,1,1,319,1,2,1,532907,537706,538025,533298,39100,49,1,493.807,494.198,498.606,498.925,28.417,260.012,491.607,231.631,463.226,694.838
"bas","axc",2,"130114","bas_axc_run2_130114","BY",1600,"T","P","white","center",1,1,552,1,1,386,1,1,1,541306,546105,546491,541858,39100,50,1,502.206,502.758,507.005,507.391,28.417,260.012,491.607,231.631,463.226,694.838
"bas","axc",2,"130114","bas_axc_run2_130114","BY",4000,"M","U","white","center",1,1,0,0,NA,500,1,1,0,548505,553305,553805,0,39100,51,0,509.405,-39.1,514.205,514.705,28.417,260.012,491.607,231.631,463.226,694.838
"bas","axc",2,"130114","bas_axc_run2_130114","AX",1600,"A","X","white","center",1,2,488,1,1,256,1,2,1,558121,562921,563177,558609,39100,52,1,519.021,519.509,523.821,524.077,28.417,260.012,491.607,231.631,463.226,694.838
"bas","axc",2,"130114","bas_axc_run2_130114","BX",4000,"T","X","white","center",1,1,435,1,1,381,1,1,1,565320,570120,570501,565755,39100,53,1,526.22,526.655,531.02,531.401,28.417,260.012,491.607,231.631,463.226,694.838
"bas","axc",2,"130114","bas_axc_run2_130114","BY",4000,"M","U","white","center",1,1,1125,1,1,460,1,1,1,574919,579719,580179,576044,39100,54,1,535.819,536.944,540.619,541.079,28.417,260.012,491.607,231.631,463.226,694.838
"bas","axc",2,"130114","bas_axc_run2_130114","BY",2800,"H","C","white","center",1,1,0,0,NA,410,1,1,0,584519,589318,589728,0,39100,55,0,545.419,-39.1,550.218,550.628,28.417,260.012,491.607,231.631,463.226,694.838
"bas","axc",2,"130114","bas_axc_run2_130114","AX",1600,"A","X","white","center",1,2,413,1,1,382,1,2,1,592918,597717,598099,593331,39100,56,1,553.818,554.231,558.617,558.999,28.417,260.012,491.607,231.631,463.226,694.838
"bas","axc",2,"130114","bas_axc_run2_130114","AX",2800,"A","X","white","center",1,2,400,1,1,378,1,2,1,600117,604917,605295,600517,39100,57,1,561.017,561.417,565.817,566.195,28.417,260.012,491.607,231.631,463.226,694.838
"bas","axc",2,"130114","bas_axc_run2_130114","AX",1600,"A","X","white","center",1,2,429,1,1,268,1,2,1,608516,613316,613584,608945,39100,58,1,569.416,569.845,574.216,574.484,28.417,260.012,491.607,231.631,463.226,694.838
"bas","axc",2,"130114","bas_axc_run2_130114","Bng",2800,"T","1","white","center",1,NA,442,1,1,0,1,NA,1,615716,620515,0,616158,39100,59,1,576.616,577.058,581.415,-39.1,28.417,260.012,491.607,231.631,463.226,694.838
"bas","axc",2,"130114","bas_axc_run2_130114","AX",4000,"A","X","white","center",1,2,358,1,1,314,1,2,1,624115,628914,629228,624473,39100,60,1,585.015,585.373,589.814,590.128,28.417,260.012,491.607,231.631,463.226,694.838
"bas","axc",2,"130114","bas_axc_run2_130114","BY",2800,"C","F","white","center",1,1,470,1,1,414,1,1,1,633714,638514,638928,634184,39100,61,1,594.614,595.084,599.414,599.828,28.417,260.012,491.607,231.631,463.226,694.838
"bas","axc",2,"130114","bas_axc_run2_130114","AY",1600,"A","F","white","center",1,1,264,1,1,506,1,1,1,642113,646913,647419,642377,39100,62,1,603.013,603.277,607.813,608.319,28.417,260.012,491.607,231.631,463.226,694.838
"bas","axc",2,"130114","bas_axc_run2_130114","Ang",1600,"A","8","white","center",1,NA,575,1,1,0,1,NA,1,649313,654112,0,649888,39100,63,1,610.213,610.788,615.012,-39.1,28.417,260.012,491.607,231.631,463.226,694.838
"bas","axc",2,"130114","bas_axc_run2_130114","AY",4000,"A","M","white","center",1,1,414,1,1,668,1,1,1,656512,661311,661979,656926,39100,64,1,617.412,617.826,622.211,622.879,28.417,260.012,491.607,231.631,463.226,694.838
"bas","axc",2,"130114","bas_axc_run2_130114","BY",4000,"C","N","white","center",1,1,381,1,1,99,1,1,1,666111,670911,671010,666492,39100,65,1,627.011,627.392,631.811,631.91,28.417,260.012,491.607,231.631,463.226,694.838
"bas","axc",2,"130114","bas_axc_run2_130114","BX",2800,"N","X","white","center",1,1,955,1,1,0,0,NA,0,675710,680510,0,676665,39100,66,0,636.61,637.565,641.41,-39.1,28.417,260.012,491.607,231.631,463.226,694.838
"bas","axc",2,"130114","bas_axc_run2_130114","AX",2800,"A","X","white","center",1,2,0,0,NA,401,1,2,0,684109,688909,689310,0,39100,67,0,645.009,-39.1,649.809,650.21,28.417,260.012,491.607,231.631,463.226,694.838
"bas","axc",2,"130114","bas_axc_run2_130114","Ang",1600,"A","6","white","center",1,NA,373,1,1,0,1,NA,1,692509,697308,0,692882,39100,68,1,653.409,653.782,658.208,-39.1,28.417,260.012,491.607,231.631,463.226,694.838
"bas","axc",2,"130114","bas_axc_run2_130114","BY",4000,"U","F","white","center",1,1,629,1,1,341,1,1,1,699708,704507,704848,700337,39100,69,1,660.608,661.237,665.407,665.748,28.417,260.012,491.607,231.631,463.226,694.838
"bas","axc",2,"130114","bas_axc_run2_130114","Bng",1600,"N","4","white","center",1,NA,443,1,1,0,1,NA,1,709307,714106,0,709750,39100,70,1,670.207,670.65,675.006,-39.1,28.417,260.012,491.607,231.631,463.226,694.838
"bas","axc",2,"130114","bas_axc_run2_130114","AX",2800,"A","X","white","center",1,2,483,1,1,781,0,1,0,716506,721306,722087,716989,39100,71,0,677.406,677.889,682.206,682.987,28.417,260.012,491.607,231.631,463.226,694.838
"bas","axc",2,"130114","bas_axc_run2_130114","BY",4000,"N","D","white","center",1,1,292,1,1,328,1,1,1,724905,729705,730033,725197,39100,72,1,685.805,686.097,690.605,690.933,28.417,260.012,491.607,231.631,463.226,694.838
"pro","axc",1,"130114","pro_axc_run1_130114","Ang",4000,"A","8","white","center",1,NA,399,1,1,0,1,NA,1,215027,219826,0,215426,184410,1,1,30.617,31.016,35.416,-184.41,28.417,260.017,491.616,231.637,463.22,694.82
"pro","axc",1,"130114","pro_axc_run1_130114","BY",2800,"H","C","white","center",1,1,341,1,1,449,1,1,1,224625,229425,229874,224966,184410,2,1,40.215,40.556,45.015,45.464,28.417,260.017,491.616,231.637,463.22,694.82
"pro","axc",1,"130114","pro_axc_run1_130114","BY",4000,"C","F","white","center",1,1,310,1,1,381,1,1,1,233024,237823,238204,233334,184410,3,1,48.614,48.924,53.413,53.794,28.417,260.017,491.616,231.637,463.22,694.82
"pro","axc",1,"130114","pro_axc_run1_130114","BY",1600,"M","N","white","center",1,1,323,1,1,344,1,1,1,242623,247422,247766,242946,184410,4,1,58.213,58.536,63.012,63.356,28.417,260.017,491.616,231.637,463.22,694.82
"pro","axc",1,"130114","pro_axc_run1_130114","AX",2800,"A","X","white","center",1,2,329,1,1,391,1,2,1,249822,254621,255012,250151,184410,5,1,65.412,65.741,70.211,70.602,28.417,260.017,491.616,231.637,463.22,694.82
"pro","axc",1,"130114","pro_axc_run1_130114","AX",1600,"A","X","white","center",1,2,342,1,1,230,1,2,1,258220,263020,263250,258562,184410,6,1,73.81,74.152,78.61,78.84,28.417,260.017,491.616,231.637,463.22,694.82
"pro","axc",1,"130114","pro_axc_run1_130114","BY",2800,"D","U","white","center",1,1,414,1,1,359,1,1,1,265419,270219,270578,265833,184410,7,1,81.009,81.423,85.809,86.168,28.417,260.017,491.616,231.637,463.22,694.82
"pro","axc",1,"130114","pro_axc_run1_130114","BY",4000,"C","N","white","center",1,1,314,1,1,324,1,1,1,273818,278617,278941,274132,184410,8,1,89.408,89.722,94.207,94.531,28.417,260.017,491.616,231.637,463.22,694.82
"pro","axc",1,"130114","pro_axc_run1_130114","AX",1600,"A","X","white","center",1,2,368,1,1,315,1,2,1,283417,288216,288531,283785,184410,9,1,99.007,99.375,103.806,104.121,28.417,260.017,491.616,231.637,463.22,694.82
"pro","axc",1,"130114","pro_axc_run1_130114","AX",1600,"A","X","white","center",1,2,313,1,1,395,1,2,1,290616,295415,295810,290929,184410,10,1,106.206,106.519,111.005,111.4,28.417,260.017,491.616,231.637,463.22,694.82
"pro","axc",1,"130114","pro_axc_run1_130114","AY",4000,"A","F","white","center",1,1,302,1,1,499,1,1,1,297815,302631,303130,298117,184410,11,1,113.405,113.707,118.221,118.72,28.417,260.017,491.616,231.637,463.22,694.82
"pro","axc",1,"130114","pro_axc_run1_130114","BX",2800,"T","X","white","center",1,1,320,1,1,339,1,1,1,307430,312229,312568,307750,184410,12,1,123.02,123.34,127.819,128.158,28.417,260.017,491.616,231.637,463.22,694.82
"pro","axc",1,"130114","pro_axc_run1_130114","AX",1600,"A","X","white","center",1,2,260,1,1,318,1,2,1,315829,320628,320946,316089,184410,13,1,131.419,131.679,136.218,136.536,28.417,260.017,491.616,231.637,463.22,694.82
"pro","axc",1,"130114","pro_axc_run1_130114","BY",2800,"T","P","white","center",1,1,236,1,1,261,1,1,1,323028,327827,328088,323264,184410,14,1,138.618,138.854,143.417,143.678,28.417,260.017,491.616,231.637,463.22,694.82
"pro","axc",1,"130114","pro_axc_run1_130114","Bng",1600,"H","7","white","center",1,NA,225,1,1,210,0,1,0,331426,336226,336436,331651,184410,15,0,147.016,147.241,151.816,152.026,28.417,260.017,491.616,231.637,463.22,694.82
"pro","axc",1,"130114","pro_axc_run1_130114","BY",4000,"H","F","white","center",1,1,262,1,1,355,1,1,1,338625,343425,343780,338887,184410,16,1,154.215,154.477,159.015,159.37,28.417,260.017,491.616,231.637,463.22,694.82
"pro","axc",1,"130114","pro_axc_run1_130114","Ang",1600,"A","2","white","center",1,NA,450,1,1,0,1,NA,1,348224,353023,0,348674,184410,17,1,163.814,164.264,168.613,-184.41,28.417,260.017,491.616,231.637,463.22,694.82
"pro","axc",1,"130114","pro_axc_run1_130114","AX",2800,"A","X","white","center",1,2,272,1,1,251,1,2,1,355423,360222,360473,355695,184410,18,1,171.013,171.285,175.812,176.063,28.417,260.017,491.616,231.637,463.22,694.82
"pro","axc",1,"130114","pro_axc_run1_130114","AY",4000,"A","U","white","center",1,1,316,1,1,384,1,1,1,363822,368621,369005,364138,184410,19,1,179.412,179.728,184.211,184.595,28.417,260.017,491.616,231.637,463.22,694.82
"pro","axc",1,"130114","pro_axc_run1_130114","Bng",4000,"D","1","white","center",1,NA,242,1,1,262,0,1,0,373420,378220,378482,373662,184410,20,0,189.01,189.252,193.81,194.072,28.417,260.017,491.616,231.637,463.22,694.82
"pro","axc",1,"130114","pro_axc_run1_130114","AX",2800,"A","X","white","center",1,2,252,1,1,280,1,2,1,383019,387818,388098,383271,184410,21,1,198.609,198.861,203.408,203.688,28.417,260.017,491.616,231.637,463.22,694.82
"pro","axc",1,"130114","pro_axc_run1_130114","AX",2800,"A","X","white","center",1,2,279,1,1,288,1,2,1,391418,396217,396505,391697,184410,22,1,207.008,207.287,211.807,212.095,28.417,260.017,491.616,231.637,463.22,694.82
"pro","axc",1,"130114","pro_axc_run1_130114","BY",4000,"T","H","white","center",1,1,259,1,1,387,1,1,1,399816,404616,405003,400075,184410,23,1,215.406,215.665,220.206,220.593,28.417,260.017,491.616,231.637,463.22,694.82
"pro","axc",1,"130114","pro_axc_run1_130114","BX",1600,"N","X","white","center",1,1,343,1,1,520,1,1,1,409415,414231,414751,409758,184410,24,1,225.005,225.348,229.821,230.341,28.417,260.017,491.616,231.637,463.22,694.82
"pro","axc",1,"130114","pro_axc_run1_130114","AY",2800,"A","C","white","center",1,1,0,0,NA,209,1,1,0,446626,451426,451635,0,184410,25,0,262.216,-184.41,267.016,267.225,28.417,260.017,491.616,231.637,463.22,694.82
"pro","axc",1,"130114","pro_axc_run1_130114","AY",4000,"A","P","white","center",1,1,268,1,1,213,0,2,0,455025,459824,460037,455293,184410,26,0,270.615,270.883,275.414,275.627,28.417,260.017,491.616,231.637,463.22,694.82
"pro","axc",1,"130114","pro_axc_run1_130114","AX",1600,"A","X","white","center",1,2,349,1,1,348,1,2,1,464624,469423,469771,464973,184410,27,1,280.214,280.563,285.013,285.361,28.417,260.017,491.616,231.637,463.22,694.82
"pro","axc",1,"130114","pro_axc_run1_130114","AX",1600,"A","X","white","center",1,2,317,1,1,265,1,2,1,471823,476622,476887,472140,184410,28,1,287.413,287.73,292.212,292.477,28.417,260.017,491.616,231.637,463.22,694.82
"pro","axc",1,"130114","pro_axc_run1_130114","Bng",4000,"F","3","white","center",1,NA,315,1,1,0,1,NA,1,479021,483821,0,479336,184410,29,1,294.611,294.926,299.411,-184.41,28.417,260.017,491.616,231.637,463.22,694.82
"pro","axc",1,"130114","pro_axc_run1_130114","BY",4000,"P","C","white","center",1,1,469,1,1,475,1,1,1,488620,493419,493894,489089,184410,30,1,304.21,304.679,309.009,309.484,28.417,260.017,491.616,231.637,463.22,694.82
"pro","axc",1,"130114","pro_axc_run1_130114","Ang",4000,"A","6","white","center",1,NA,457,1,1,0,1,NA,1,498219,503018,0,498676,184410,31,1,313.809,314.266,318.608,-184.41,28.417,260.017,491.616,231.637,463.22,694.82
"pro","axc",1,"130114","pro_axc_run1_130114","BX",2800,"H","X","white","center",1,1,355,1,1,322,1,1,1,507817,512617,512939,508172,184410,32,1,323.407,323.762,328.207,328.529,28.417,260.017,491.616,231.637,463.22,694.82
"pro","axc",1,"130114","pro_axc_run1_130114","AX",2800,"A","X","white","center",1,2,320,1,1,352,1,2,1,516216,521015,521367,516536,184410,33,1,331.806,332.126,336.605,336.957,28.417,260.017,491.616,231.637,463.22,694.82
"pro","axc",1,"130114","pro_axc_run1_130114","BY",1600,"F","D","white","center",1,1,531,1,1,320,1,1,1,524615,529431,529751,525146,184410,34,1,340.205,340.736,345.021,345.341,28.417,260.017,491.616,231.637,463.22,694.82
"pro","axc",1,"130114","pro_axc_run1_130114","BY",2800,"U","T","white","center",1,1,567,1,1,413,1,1,1,531830,536630,537043,532397,184410,35,1,347.42,347.987,352.22,352.633,28.417,260.017,491.616,231.637,463.22,694.82
"pro","axc",1,"130114","pro_axc_run1_130114","BY",1600,"N","H","white","center",1,1,0,0,NA,317,1,1,0,540229,545029,545346,0,184410,36,0,355.819,-184.41,360.619,360.936,28.417,260.017,491.616,231.637,463.22,694.82
"pro","axc",1,"130114","pro_axc_run1_130114","AX",2800,"A","X","white","center",1,2,334,1,1,199,1,2,1,547428,552227,552426,547762,184410,37,1,363.018,363.352,367.817,368.016,28.417,260.017,491.616,231.637,463.22,694.82
"pro","axc",1,"130114","pro_axc_run1_130114","AX",4000,"A","X","white","center",1,2,303,1,1,211,1,2,1,555827,560626,560837,556130,184410,38,1,371.417,371.72,376.216,376.427,28.417,260.017,491.616,231.637,463.22,694.82
"pro","axc",1,"130114","pro_axc_run1_130114","BY",2800,"M","U","white","center",1,1,301,1,1,332,1,1,1,565426,570225,570557,565727,184410,39,1,381.016,381.317,385.815,386.147,28.417,260.017,491.616,231.637,463.22,694.82
"pro","axc",1,"130114","pro_axc_run1_130114","AX",4000,"A","X","white","center",1,2,422,1,1,194,1,2,1,573824,578624,578818,574246,184410,40,1,389.414,389.836,394.214,394.408,28.417,260.017,491.616,231.637,463.22,694.82
"pro","axc",1,"130114","pro_axc_run1_130114","Ang",1600,"A","4","white","center",1,NA,198,1,1,0,1,NA,1,583423,588222,0,583621,184410,41,1,399.013,399.211,403.812,-184.41,28.417,260.017,491.616,231.637,463.22,694.82
"pro","axc",1,"130114","pro_axc_run1_130114","BY",1600,"N","D","white","center",1,1,206,1,1,312,1,1,1,590622,595421,595733,590828,184410,42,1,406.212,406.418,411.011,411.323,28.417,260.017,491.616,231.637,463.22,694.82
"pro","axc",1,"130114","pro_axc_run1_130114","BY",1600,"U","F","white","center",1,1,516,1,1,257,1,1,1,597821,602620,602877,598337,184410,43,1,413.411,413.927,418.21,418.467,28.417,260.017,491.616,231.637,463.22,694.82
"pro","axc",1,"130114","pro_axc_run1_130114","Bng",1600,"C","7","white","center",1,NA,301,1,1,487,0,1,0,605020,609819,610306,605321,184410,44,0,420.61,420.911,425.409,425.896,28.417,260.017,491.616,231.637,463.22,694.82
"pro","axc",1,"130114","pro_axc_run1_130114","AX",2800,"A","X","white","center",1,2,230,1,1,316,1,2,1,612219,617018,617334,612449,184410,45,1,427.809,428.039,432.608,432.924,28.417,260.017,491.616,231.637,463.22,694.82
"pro","axc",1,"130114","pro_axc_run1_130114","BX",2800,"D","X","white","center",1,1,336,1,1,318,1,1,1,620617,625417,625735,620953,184410,46,1,436.207,436.543,441.007,441.325,28.417,260.017,491.616,231.637,463.22,694.82
"pro","axc",1,"130114","pro_axc_run1_130114","BY",4000,"P","T","white","center",1,1,211,1,1,678,1,1,1,629016,633816,634494,629227,184410,47,1,444.606,444.817,449.406,450.084,28.417,260.017,491.616,231.637,463.22,694.82
"pro","axc",1,"130114","pro_axc_run1_130114","AX",4000,"A","X","white","center",1,2,309,1,1,452,1,2,1,638615,643431,643883,638924,184410,48,1,454.205,454.514,459.021,459.473,28.417,260.017,491.616,231.637,463.22,694.82
"pro","axc",1,"130114","pro_axc_run1_130114","BX",1600,"D","X","white","center",1,1,480,1,1,355,1,1,1,678226,683025,683380,678706,184410,49,1,493.816,494.296,498.615,498.97,28.417,260.017,491.616,231.637,463.22,694.82
"pro","axc",1,"130114","pro_axc_run1_130114","BY",2800,"D","C","white","center",1,1,287,1,1,321,1,1,1,685425,690224,690545,685712,184410,50,1,501.015,501.302,505.814,506.135,28.417,260.017,491.616,231.637,463.22,694.82
"pro","axc",1,"130114","pro_axc_run1_130114","AX",1600,"A","X","white","center",1,2,239,1,1,377,1,2,1,693823,698623,699000,694062,184410,51,1,509.413,509.652,514.213,514.59,28.417,260.017,491.616,231.637,463.22,694.82
"pro","axc",1,"130114","pro_axc_run1_130114","BY",4000,"F","H","white","center",1,1,303,1,1,224,1,1,1,701022,705822,706046,701325,184410,52,1,516.612,516.915,521.412,521.636,28.417,260.017,491.616,231.637,463.22,694.82
"pro","axc",1,"130114","pro_axc_run1_130114","Bng",4000,"P","2","white","center",1,NA,259,1,1,0,1,NA,1,710621,715420,0,710880,184410,53,1,526.211,526.47,531.01,-184.41,28.417,260.017,491.616,231.637,463.22,694.82
"pro","axc",1,"130114","pro_axc_run1_130114","AY",2800,"A","M","white","center",1,1,373,1,1,335,0,2,0,720220,725019,725354,720593,184410,54,0,535.81,536.183,540.609,540.944,28.417,260.017,491.616,231.637,463.22,694.82
"pro","axc",1,"130114","pro_axc_run1_130114","BX",2800,"H","X","white","center",1,1,166,1,1,408,1,1,1,728618,733418,733826,728784,184410,55,1,544.208,544.374,549.008,549.416,28.417,260.017,491.616,231.637,463.22,694.82
"pro","axc",1,"130114","pro_axc_run1_130114","AX",2800,"A","X","white","center",1,2,274,1,1,208,1,2,1,737017,741816,742024,737291,184410,56,1,552.607,552.881,557.406,557.614,28.417,260.017,491.616,231.637,463.22,694.82
"pro","axc",1,"130114","pro_axc_run1_130114","AX",4000,"A","X","white","center",1,2,332,1,1,252,1,2,1,745416,750215,750467,745748,184410,57,1,561.006,561.338,565.805,566.057,28.417,260.017,491.616,231.637,463.22,694.82
"pro","axc",1,"130114","pro_axc_run1_130114","BY",1600,"N","H","white","center",1,1,235,1,1,411,1,1,1,755015,759830,760241,755250,184410,58,1,570.605,570.84,575.42,575.831,28.417,260.017,491.616,231.637,463.22,694.82
"pro","axc",1,"130114","pro_axc_run1_130114","BY",1600,"T","P","white","center",1,1,288,1,1,327,1,1,1,762230,767029,767356,762518,184410,59,1,577.82,578.108,582.619,582.946,28.417,260.017,491.616,231.637,463.22,694.82
"pro","axc",1,"130114","pro_axc_run1_130114","AY",4000,"A","U","white","center",1,1,347,1,1,376,0,2,0,769429,774228,774604,769776,184410,60,0,585.019,585.366,589.818,590.194,28.417,260.017,491.616,231.637,463.22,694.82
"pro","axc",1,"130114","pro_axc_run1_130114","AX",1600,"A","X","white","center",1,2,341,1,1,237,1,2,1,779028,783827,784064,779369,184410,61,1,594.618,594.959,599.417,599.654,28.417,260.017,491.616,231.637,463.22,694.82
"pro","axc",1,"130114","pro_axc_run1_130114","Bng",1600,"N","4","white","center",1,NA,624,1,1,0,1,NA,1,786227,791026,0,786851,184410,62,1,601.817,602.441,606.616,-184.41,28.417,260.017,491.616,231.637,463.22,694.82
"pro","axc",1,"130114","pro_axc_run1_130114","BY",1600,"F","H","white","center",1,1,253,1,1,680,1,1,1,793426,798225,798905,793679,184410,63,1,609.016,609.269,613.815,614.495,28.417,260.017,491.616,231.637,463.22,694.82
"pro","axc",1,"130114","pro_axc_run1_130114","Ang",4000,"A","8","white","center",1,NA,297,1,1,0,1,NA,1,800625,805424,0,800922,184410,64,1,616.215,616.512,621.014,-184.41,28.417,260.017,491.616,231.637,463.22,694.82
"pro","axc",1,"130114","pro_axc_run1_130114","BY",2800,"D","C","white","center",1,1,371,1,1,328,1,1,1,810223,815022,815350,810594,184410,65,1,625.813,626.184,630.612,630.94,28.417,260.017,491.616,231.637,463.22,694.82
"pro","axc",1,"130114","pro_axc_run1_130114","BY",2800,"M","U","white","center",1,1,352,1,1,203,1,1,1,818622,823421,823624,818974,184410,66,1,634.212,634.564,639.011,639.214,28.417,260.017,491.616,231.637,463.22,694.82
"pro","axc",1,"130114","pro_axc_run1_130114","Ang",1600,"A","4","white","center",1,NA,299,1,1,0,1,NA,1,827021,831820,0,827320,184410,67,1,642.611,642.91,647.41,-184.41,28.417,260.017,491.616,231.637,463.22,694.82
"pro","axc",1,"130114","pro_axc_run1_130114","AX",2800,"A","X","white","center",1,2,486,1,1,306,1,2,1,834220,839019,839325,834706,184410,68,1,649.81,650.296,654.609,654.915,28.417,260.017,491.616,231.637,463.22,694.82
"pro","axc",1,"130114","pro_axc_run1_130114","AX",2800,"A","X","white","center",1,2,280,1,1,222,1,2,1,842618,847418,847640,842898,184410,69,1,658.208,658.488,663.008,663.23,28.417,260.017,491.616,231.637,463.22,694.82
"pro","axc",1,"130114","pro_axc_run1_130114","AX",4000,"A","X","white","center",1,2,208,1,1,483,0,1,0,851017,855816,856299,851225,184410,70,0,666.607,666.815,671.406,671.889,28.417,260.017,491.616,231.637,463.22,694.82
"pro","axc",1,"130114","pro_axc_run1_130114","BY",4000,"U","F","white","center",1,1,275,1,1,379,1,1,1,860616,865415,865794,860891,184410,71,1,676.206,676.481,681.005,681.384,28.417,260.017,491.616,231.637,463.22,694.82
"pro","axc",1,"130114","pro_axc_run1_130114","AX",4000,"A","X","white","center",1,2,235,1,1,313,1,2,1,870231,875030,875343,870466,184410,72,1,685.821,686.056,690.62,690.933,28.417,260.017,491.616,231.637,463.22,694.82
"pro","axc",2,"130114","pro_axc_run2_130114","AY",2800,"A","N","white","center",1,1,349,1,1,243,0,2,0,89296,94095,94338,89645,58683,1,0,30.613,30.962,35.412,35.655,28.413,260.013,491.612,231.633,463.233,694.832
"pro","axc",2,"130114","pro_axc_run2_130114","BX",1600,"C","X","white","center",1,1,360,1,1,364,1,1,1,97695,102494,102858,98055,58683,2,1,39.012,39.372,43.811,44.175,28.413,260.013,491.612,231.633,463.233,694.832
"pro","axc",2,"130114","pro_axc_run2_130114","BY",4000,"M","P","white","center",1,1,290,1,1,392,1,1,1,104910,109709,110101,105200,58683,3,1,46.227,46.517,51.026,51.418,28.413,260.013,491.612,231.633,463.233,694.832
"pro","axc",2,"130114","pro_axc_run2_130114","AX",1600,"A","X","white","center",1,2,418,1,1,277,1,2,1,114509,119308,119585,114927,58683,4,1,55.826,56.244,60.625,60.902,28.413,260.013,491.612,231.633,463.233,694.832
"pro","axc",2,"130114","pro_axc_run2_130114","AX",4000,"A","X","white","center",1,2,237,1,1,351,1,2,1,121708,126507,126858,121945,58683,5,1,63.025,63.262,67.824,68.175,28.413,260.013,491.612,231.633,463.233,694.832
"pro","axc",2,"130114","pro_axc_run2_130114","BY",4000,"H","U","white","center",1,1,434,1,1,356,1,1,1,131306,136106,136462,131740,58683,6,1,72.623,73.057,77.423,77.779,28.413,260.013,491.612,231.633,463.233,694.832
"pro","axc",2,"130114","pro_axc_run2_130114","Bng",2800,"F","5","white","center",1,NA,304,1,1,0,1,NA,1,140905,145704,0,141209,58683,7,1,82.222,82.526,87.021,-58.683,28.413,260.013,491.612,231.633,463.233,694.832
"pro","axc",2,"130114","pro_axc_run2_130114","AX",1600,"A","X","white","center",1,2,243,1,1,280,1,2,1,149304,154103,154383,149547,58683,8,1,90.621,90.864,95.42,95.7,28.413,260.013,491.612,231.633,463.233,694.832
"pro","axc",2,"130114","pro_axc_run2_130114","Bng",2800,"C","8","white","center",1,NA,214,1,1,316,0,1,0,156503,161302,161618,156717,58683,9,0,97.82,98.034,102.619,102.935,28.413,260.013,491.612,231.633,463.233,694.832
"pro","axc",2,"130114","pro_axc_run2_130114","BY",2800,"H","T","white","center",1,1,289,1,1,402,1,1,1,164901,169701,170103,165190,58683,10,1,106.218,106.507,111.018,111.42,28.413,260.013,491.612,231.633,463.233,694.832
"pro","axc",2,"130114","pro_axc_run2_130114","BY",1600,"F","M","white","center",1,1,377,1,1,321,1,1,1,173300,178099,178420,173677,58683,11,1,114.617,114.994,119.416,119.737,28.413,260.013,491.612,231.633,463.233,694.832
"pro","axc",2,"130114","pro_axc_run2_130114","AX",4000,"A","X","white","center",1,2,264,1,1,354,1,2,1,180499,185298,185652,180763,58683,12,1,121.816,122.08,126.615,126.969,28.413,260.013,491.612,231.633,463.233,694.832
"pro","axc",2,"130114","pro_axc_run2_130114","AX",1600,"A","X","white","center",1,2,304,1,1,568,1,2,1,190098,194897,195465,190402,58683,13,1,131.415,131.719,136.214,136.782,28.413,260.013,491.612,231.633,463.233,694.832
"pro","axc",2,"130114","pro_axc_run2_130114","AX",1600,"A","X","white","center",1,2,242,1,1,312,1,2,1,197297,202096,202408,197539,58683,14,1,138.614,138.856,143.413,143.725,28.413,260.013,491.612,231.633,463.233,694.832
"pro","axc",2,"130114","pro_axc_run2_130114","AY",4000,"A","H","white","center",1,1,190,1,1,592,1,1,1,204496,209295,209887,204686,58683,15,1,145.813,146.003,150.612,151.204,28.413,260.013,491.612,231.633,463.233,694.832
"pro","axc",2,"130114","pro_axc_run2_130114","BY",2800,"N","U","white","center",1,1,253,1,1,289,1,1,1,214094,218894,219183,214347,58683,16,1,155.411,155.664,160.211,160.5,28.413,260.013,491.612,231.633,463.233,694.832
"pro","axc",2,"130114","pro_axc_run2_130114","BY",2800,"T","N","white","center",1,1,405,1,1,372,1,1,1,222510,227309,227681,222915,58683,17,1,163.827,164.232,168.626,168.998,28.413,260.013,491.612,231.633,463.233,694.832
"pro","axc",2,"130114","pro_axc_run2_130114","BY",4000,"P","H","white","center",1,1,0,0,NA,142,1,1,0,230908,235708,235850,0,58683,18,0,172.225,-58.683,177.025,177.167,28.413,260.013,491.612,231.633,463.233,694.832
"pro","axc",2,"130114","pro_axc_run2_130114","BX",4000,"U","X","white","center",1,1,369,1,1,612,1,1,1,240507,245306,245918,240876,58683,19,1,181.824,182.193,186.623,187.235,28.413,260.013,491.612,231.633,463.233,694.832
"pro","axc",2,"130114","pro_axc_run2_130114","Ang",2800,"A","5","white","center",1,NA,419,1,1,0,1,NA,1,250106,254905,0,250525,58683,20,1,191.423,191.842,196.222,-58.683,28.413,260.013,491.612,231.633,463.233,694.832
"pro","axc",2,"130114","pro_axc_run2_130114","BY",2800,"N","P","white","center",1,1,283,1,1,475,1,1,1,258504,263304,263779,258787,58683,21,1,199.821,200.104,204.621,205.096,28.413,260.013,491.612,231.633,463.233,694.832
"pro","axc",2,"130114","pro_axc_run2_130114","AX",4000,"A","X","white","center",1,2,345,1,1,347,1,2,1,266903,271702,272049,267248,58683,22,1,208.22,208.565,213.019,213.366,28.413,260.013,491.612,231.633,463.233,694.832
"pro","axc",2,"130114","pro_axc_run2_130114","AX",1600,"A","X","white","center",1,2,348,1,1,686,0,1,0,276502,281301,281987,276850,58683,23,0,217.819,218.167,222.618,223.304,28.413,260.013,491.612,231.633,463.233,694.832
"pro","axc",2,"130114","pro_axc_run2_130114","Ang",1600,"A","3","white","center",1,NA,301,1,1,0,1,NA,1,283701,288500,0,284002,58683,24,1,225.018,225.319,229.817,-58.683,28.413,260.013,491.612,231.633,463.233,694.832
"pro","axc",2,"130114","pro_axc_run2_130114","AX",1600,"A","X","white","center",1,2,0,0,NA,187,0,1,0,320895,325695,325882,0,58683,25,0,262.212,-58.683,267.012,267.199,28.413,260.013,491.612,231.633,463.233,694.832
"pro","axc",2,"130114","pro_axc_run2_130114","AX",4000,"A","X","white","center",1,2,268,1,1,258,1,2,1,328094,332894,333152,328362,58683,26,1,269.411,269.679,274.211,274.469,28.413,260.013,491.612,231.633,463.233,694.832
"pro","axc",2,"130114","pro_axc_run2_130114","BY",1600,"C","D","white","center",1,1,398,1,1,391,1,1,1,337710,342509,342900,338108,58683,27,1,279.027,279.425,283.826,284.217,28.413,260.013,491.612,231.633,463.233,694.832
"pro","axc",2,"130114","pro_axc_run2_130114","AX",4000,"A","X","white","center",1,2,312,1,1,349,1,2,1,344908,349708,350057,345220,58683,28,1,286.225,286.537,291.025,291.374,28.413,260.013,491.612,231.633,463.233,694.832
"pro","axc",2,"130114","pro_axc_run2_130114","AY",1600,"A","D","white","center",1,1,312,1,1,479,1,1,1,354507,359306,359785,354819,58683,29,1,295.824,296.136,300.623,301.102,28.413,260.013,491.612,231.633,463.233,694.832
"pro","axc",2,"130114","pro_axc_run2_130114","BY",1600,"M","F","white","center",1,1,305,1,1,246,1,1,1,361706,366505,366751,362011,58683,30,1,303.023,303.328,307.822,308.068,28.413,260.013,491.612,231.633,463.233,694.832
"pro","axc",2,"130114","pro_axc_run2_130114","BY",2800,"T","M","white","center",1,1,188,1,1,208,1,1,1,368905,373704,373912,369093,58683,31,1,310.222,310.41,315.021,315.229,28.413,260.013,491.612,231.633,463.233,694.832
"pro","axc",2,"130114","pro_axc_run2_130114","AX",4000,"A","X","white","center",1,2,337,1,1,288,1,2,1,377304,382103,382391,377641,58683,32,1,318.621,318.958,323.42,323.708,28.413,260.013,491.612,231.633,463.233,694.832
"pro","axc",2,"130114","pro_axc_run2_130114","AX",2800,"A","X","white","center",1,2,259,1,1,332,1,2,1,386902,391702,392034,387161,58683,33,1,328.219,328.478,333.019,333.351,28.413,260.013,491.612,231.633,463.233,694.832
"pro","axc",2,"130114","pro_axc_run2_130114","Bng",2800,"D","2","white","center",1,NA,259,1,1,0,1,NA,1,395301,400100,0,395560,58683,34,1,336.618,336.877,341.417,-58.683,28.413,260.013,491.612,231.633,463.233,694.832
"pro","axc",2,"130114","pro_axc_run2_130114","BY",4000,"P","M","white","center",1,1,181,1,1,364,1,1,1,403700,408499,408863,403881,58683,35,1,345.017,345.198,349.816,350.18,28.413,260.013,491.612,231.633,463.233,694.832
"pro","axc",2,"130114","pro_axc_run2_130114","BX",2800,"M","X","white","center",1,1,487,1,1,293,1,1,1,413298,418098,418391,413785,58683,36,1,354.615,355.102,359.415,359.708,28.413,260.013,491.612,231.633,463.233,694.832
"pro","axc",2,"130114","pro_axc_run2_130114","AX",2800,"A","X","white","center",1,2,627,1,1,403,1,2,1,421697,426497,426900,422324,58683,37,1,363.014,363.641,367.814,368.217,28.413,260.013,491.612,231.633,463.233,694.832
"pro","axc",2,"130114","pro_axc_run2_130114","Bng",2800,"P","4","white","center",1,NA,0,0,NA,295,0,1,0,430096,434895,435190,0,58683,38,0,371.413,-58.683,376.212,376.507,28.413,260.013,491.612,231.633,463.233,694.832
"pro","axc",2,"130114","pro_axc_run2_130114","Ang",4000,"A","7","white","center",1,NA,172,1,1,0,1,NA,1,438495,443294,0,438667,58683,39,1,379.812,379.984,384.611,-58.683,28.413,260.013,491.612,231.633,463.233,694.832
"pro","axc",2,"130114","pro_axc_run2_130114","BY",1600,"F","C","white","center",1,1,199,1,1,361,1,1,1,448110,452909,453270,448309,58683,40,1,389.427,389.626,394.226,394.587,28.413,260.013,491.612,231.633,463.233,694.832
"pro","axc",2,"130114","pro_axc_run2_130114","BY",4000,"D","N","white","center",1,1,273,1,1,0,0,NA,0,455309,460108,0,455582,58683,41,0,396.626,396.899,401.425,-58.683,28.413,260.013,491.612,231.633,463.233,694.832
"pro","axc",2,"130114","pro_axc_run2_130114","BY",1600,"C","M","white","center",1,1,616,1,1,290,1,1,1,464908,469707,469997,465524,58683,42,1,406.225,406.841,411.024,411.314,28.413,260.013,491.612,231.633,463.233,694.832
"pro","axc",2,"130114","pro_axc_run2_130114","BX",4000,"F","X","white","center",1,1,0,0,NA,499,0,2,0,472107,476906,477405,0,58683,43,0,413.424,-58.683,418.223,418.722,28.413,260.013,491.612,231.633,463.233,694.832
"pro","axc",2,"130114","pro_axc_run2_130114","Ang",2800,"A","9","white","center",1,NA,230,1,1,0,1,NA,1,481705,486504,0,481935,58683,44,1,423.022,423.252,427.821,-58.683,28.413,260.013,491.612,231.633,463.233,694.832
"pro","axc",2,"130114","pro_axc_run2_130114","BY",4000,"U","P","white","center",1,1,0,0,NA,425,1,1,0,490104,494903,495328,0,58683,45,0,431.421,-58.683,436.22,436.645,28.413,260.013,491.612,231.633,463.233,694.832
"pro","axc",2,"130114","pro_axc_run2_130114","AY",1600,"A","T","white","center",1,1,316,1,1,488,0,2,0,499703,504502,504990,500019,58683,46,0,441.02,441.336,445.819,446.307,28.413,260.013,491.612,231.633,463.233,694.832
"pro","axc",2,"130114","pro_axc_run2_130114","AX",2800,"A","X","white","center",1,2,249,1,1,279,1,2,1,506901,511701,511980,507150,58683,47,1,448.218,448.467,453.018,453.297,28.413,260.013,491.612,231.633,463.233,694.832
"pro","axc",2,"130114","pro_axc_run2_130114","AX",1600,"A","X","white","center",1,2,286,1,1,262,1,2,1,515300,520100,520362,515586,58683,48,1,456.617,456.903,461.417,461.679,28.413,260.013,491.612,231.633,463.233,694.832
"pro","axc",2,"130114","pro_axc_run2_130114","BY",4000,"D","T","white","center",1,1,709,1,1,209,1,1,1,552495,557294,557503,553204,58683,49,1,493.812,494.521,498.611,498.82,28.413,260.013,491.612,231.633,463.233,694.832
"pro","axc",2,"130114","pro_axc_run2_130114","BY",1600,"U","D","white","center",1,1,271,1,1,553,1,1,1,562110,566909,567462,562381,58683,50,1,503.427,503.698,508.226,508.779,28.413,260.013,491.612,231.633,463.233,694.832
"pro","axc",2,"130114","pro_axc_run2_130114","Ang",1600,"A","1","white","center",1,NA,423,1,1,0,1,NA,1,569309,574108,0,569732,58683,51,1,510.626,511.049,515.425,-58.683,28.413,260.013,491.612,231.633,463.233,694.832
"pro","axc",2,"130114","pro_axc_run2_130114","AX",1600,"A","X","white","center",1,2,241,1,1,425,1,2,1,576508,581307,581732,576749,58683,52,1,517.825,518.066,522.624,523.049,28.413,260.013,491.612,231.633,463.233,694.832
"pro","axc",2,"130114","pro_axc_run2_130114","BX",2800,"P","X","white","center",1,1,0,0,NA,570,0,2,0,583707,588506,589076,0,58683,53,0,525.024,-58.683,529.823,530.393,28.413,260.013,491.612,231.633,463.233,694.832
"pro","axc",2,"130114","pro_axc_run2_130114","BY",2800,"N","U","white","center",1,1,148,1,1,219,1,1,1,592106,596905,597124,592254,58683,54,1,533.423,533.571,538.222,538.441,28.413,260.013,491.612,231.633,463.233,694.832
"pro","axc",2,"130114","pro_axc_run2_130114","Bng",1600,"M","4","white","center",1,NA,387,1,1,0,1,NA,1,600504,605304,0,600891,58683,55,1,541.821,542.208,546.621,-58.683,28.413,260.013,491.612,231.633,463.233,694.832
"pro","axc",2,"130114","pro_axc_run2_130114","Bng",4000,"N","3","white","center",1,NA,165,1,1,0,1,NA,1,607703,612503,0,607868,58683,56,1,549.02,549.185,553.82,-58.683,28.413,260.013,491.612,231.633,463.233,694.832
"pro","axc",2,"130114","pro_axc_run2_130114","Ang",4000,"A","3","white","center",1,NA,193,1,1,0,1,NA,1,617302,622101,0,617495,58683,57,1,558.619,558.812,563.418,-58.683,28.413,260.013,491.612,231.633,463.233,694.832
"pro","axc",2,"130114","pro_axc_run2_130114","BY",2800,"P","H","white","center",1,1,268,1,1,413,1,1,1,626901,631700,632113,627169,58683,58,1,568.218,568.486,573.017,573.43,28.413,260.013,491.612,231.633,463.233,694.832
"pro","axc",2,"130114","pro_axc_run2_130114","AX",2800,"A","X","white","center",1,2,287,1,1,324,1,2,1,635299,640099,640423,635586,58683,59,1,576.616,576.903,581.416,581.74,28.413,260.013,491.612,231.633,463.233,694.832
"pro","axc",2,"130114","pro_axc_run2_130114","AX",4000,"A","X","white","center",1,2,324,1,1,275,1,2,1,643698,648497,648772,644022,58683,60,1,585.015,585.339,589.814,590.089,28.413,260.013,491.612,231.633,463.233,694.832
"pro","axc",2,"130114","pro_axc_run2_130114","AX",2800,"A","X","white","center",1,2,0,0,NA,390,1,2,0,653297,658096,658486,0,58683,61,0,594.614,-58.683,599.413,599.803,28.413,260.013,491.612,231.633,463.233,694.832
"pro","axc",2,"130114","pro_axc_run2_130114","BY",4000,"F","M","white","center",1,1,405,1,1,98,1,1,1,661696,666495,666593,662101,58683,62,1,603.013,603.418,607.812,607.91,28.413,260.013,491.612,231.633,463.233,694.832
"pro","axc",2,"130114","pro_axc_run2_130114","AX",2800,"A","X","white","center",1,2,249,1,1,1166,1,2,1,671294,676110,677276,671543,58683,63,1,612.611,612.86,617.427,618.593,28.413,260.013,491.612,231.633,463.233,694.832
"pro","axc",2,"130114","pro_axc_run2_130114","BY",4000,"D","N","white","center",1,1,289,1,1,374,1,1,1,679710,684509,684883,679999,58683,64,1,621.027,621.316,625.826,626.2,28.413,260.013,491.612,231.633,463.233,694.832
"pro","axc",2,"130114","pro_axc_run2_130114","AX",1600,"A","X","white","center",1,2,198,1,1,250,1,2,1,689308,694107,694357,689506,58683,65,1,630.625,630.823,635.424,635.674,28.413,260.013,491.612,231.633,463.233,694.832
"pro","axc",2,"130114","pro_axc_run2_130114","AX",1600,"A","X","white","center",1,2,379,1,1,210,1,2,1,696507,701306,701516,696886,58683,66,1,637.824,638.203,642.623,642.833,28.413,260.013,491.612,231.633,463.233,694.832
"pro","axc",2,"130114","pro_axc_run2_130114","BX",4000,"C","X","white","center",1,1,237,1,1,548,0,2,0,703706,708505,709053,703943,58683,67,0,645.023,645.26,649.822,650.37,28.413,260.013,491.612,231.633,463.233,694.832
"pro","axc",2,"130114","pro_axc_run2_130114","AX",1600,"A","X","white","center",1,2,248,1,1,323,1,2,1,713305,718104,718427,713553,58683,68,1,654.622,654.87,659.421,659.744,28.413,260.013,491.612,231.633,463.233,694.832
"pro","axc",2,"130114","pro_axc_run2_130114","BY",2800,"D","T","white","center",1,1,398,1,1,666,1,1,1,720504,725303,725969,720902,58683,69,1,661.821,662.219,666.62,667.286,28.413,260.013,491.612,231.633,463.233,694.832
"pro","axc",2,"130114","pro_axc_run2_130114","AY",1600,"A","T","white","center",1,1,299,1,1,204,0,2,0,728902,733702,733906,729201,58683,70,0,670.219,670.518,675.019,675.223,28.413,260.013,491.612,231.633,463.233,694.832
"pro","axc",2,"130114","pro_axc_run2_130114","BY",2800,"C","M","white","center",1,1,275,1,1,396,1,1,1,736101,740901,741297,736376,58683,71,1,677.418,677.693,682.218,682.614,28.413,260.013,491.612,231.633,463.233,694.832
"pro","axc",2,"130114","pro_axc_run2_130114","AY",4000,"A","N","white","center",1,1,231,1,1,498,1,1,1,744500,749299,749797,744731,58683,72,1,685.817,686.048,690.616,691.114,28.413,260.013,491.612,231.633,463.233,694.832
"rea","axc",1,"130114","rea_axc_run1_130114","BY",1600,"C","M","white","Above",1,1,386,1,1,464,1,1,1,134051,138850,139314,134437,103441,1,1,30.61,30.996,35.409,35.873,28.41,260.011,491.613,231.632,463.234,694.818
"rea","axc",1,"130114","rea_axc_run1_130114","AX",4000,"A","X","white","Above",1,2,355,1,1,294,1,2,1,141250,146049,146343,141605,103441,2,1,37.809,38.164,42.608,42.902,28.41,260.011,491.613,231.632,463.234,694.818
"rea","axc",1,"130114","rea_axc_run1_130114","BY",1600,"P","H","white","Above",1,1,437,1,1,339,1,1,1,150848,155648,155987,151285,103441,3,1,47.407,47.844,52.207,52.546,28.41,260.011,491.613,231.632,463.234,694.818
"rea","axc",1,"130114","rea_axc_run1_130114","Bng",2800,"C","3","red","Below",1,NA,297,1,1,0,1,NA,1,158047,162847,0,158344,103441,4,1,54.606,54.903,59.406,-103.441,28.41,260.011,491.613,231.632,463.234,694.818
"rea","axc",1,"130114","rea_axc_run1_130114","AX",2800,"A","X","white","Above",1,2,349,1,1,274,1,2,1,166446,171245,171519,166795,103441,5,1,63.005,63.354,67.804,68.078,28.41,260.011,491.613,231.632,463.234,694.818
"rea","axc",1,"130114","rea_axc_run1_130114","AY",1600,"A","N","red","Below",1,1,400,1,1,871,1,1,1,174845,179644,180515,175245,103441,6,1,71.404,71.804,76.203,77.074,28.41,260.011,491.613,231.632,463.234,694.818
"rea","axc",1,"130114","rea_axc_run1_130114","BY",4000,"H","T","white","Above",1,1,410,1,1,350,1,1,1,182044,186843,187193,182454,103441,7,1,78.603,79.013,83.402,83.752,28.41,260.011,491.613,231.632,463.234,694.818
"rea","axc",1,"130114","rea_axc_run1_130114","AX",2800,"A","X","white","Above",1,2,353,1,1,316,1,2,1,191643,196442,196758,191996,103441,8,1,88.202,88.555,93.001,93.317,28.41,260.011,491.613,231.632,463.234,694.818
"rea","axc",1,"130114","rea_axc_run1_130114","BX",4000,"C","X","red","Below",1,1,278,1,1,599,1,1,1,200058,204858,205457,200336,103441,9,1,96.617,96.895,101.417,102.016,28.41,260.011,491.613,231.632,463.234,694.818
"rea","axc",1,"130114","rea_axc_run1_130114","AX",1600,"A","X","white","Above",1,2,367,1,1,287,1,2,1,209657,214456,214743,210024,103441,10,1,106.216,106.583,111.015,111.302,28.41,260.011,491.613,231.632,463.234,694.818
"rea","axc",1,"130114","rea_axc_run1_130114","BY",2800,"P","M","white","Above",1,1,431,1,1,584,1,1,1,216856,221655,222239,217287,103441,11,1,113.415,113.846,118.214,118.798,28.41,260.011,491.613,231.632,463.234,694.818
"rea","axc",1,"130114","rea_axc_run1_130114","AX",4000,"A","X","white","Above",1,2,387,1,1,302,1,2,1,225255,230054,230356,225642,103441,12,1,121.814,122.201,126.613,126.915,28.41,260.011,491.613,231.632,463.234,694.818
"rea","axc",1,"130114","rea_axc_run1_130114","BY",2800,"M","F","white","Above",1,1,377,1,1,348,1,1,1,234853,239653,240001,235230,103441,13,1,131.412,131.789,136.212,136.56,28.41,260.011,491.613,231.632,463.234,694.818
"rea","axc",1,"130114","rea_axc_run1_130114","AX",2800,"A","X","white","Above",1,2,512,1,1,339,1,2,1,243252,248052,248391,243764,103441,14,1,139.811,140.323,144.611,144.95,28.41,260.011,491.613,231.632,463.234,694.818
"rea","axc",1,"130114","rea_axc_run1_130114","AX",1600,"A","X","white","Above",1,2,459,1,1,1289,1,2,1,251651,256450,257739,252110,103441,15,1,148.21,148.669,153.009,154.298,28.41,260.011,491.613,231.632,463.234,694.818
"rea","axc",1,"130114","rea_axc_run1_130114","AX",1600,"A","X","white","Above",1,2,467,1,1,229,1,2,1,258850,263649,263878,259317,103441,16,1,155.409,155.876,160.208,160.437,28.41,260.011,491.613,231.632,463.234,694.818
"rea","axc",1,"130114","rea_axc_run1_130114","BY",4000,"N","P","white","Above",1,1,447,1,1,406,1,1,1,266049,270848,271254,266496,103441,17,1,162.608,163.055,167.407,167.813,28.41,260.011,491.613,231.632,463.234,694.818
"rea","axc",1,"130114","rea_axc_run1_130114","BY",2800,"F","M","white","Above",1,1,375,1,1,235,1,1,1,275648,280447,280682,276023,103441,18,1,172.207,172.582,177.006,177.241,28.41,260.011,491.613,231.632,463.234,694.818
"rea","axc",1,"130114","rea_axc_run1_130114","BY",4000,"U","P","white","Above",1,1,286,1,1,331,1,1,1,284047,288846,289177,284333,103441,19,1,180.606,180.892,185.405,185.736,28.41,260.011,491.613,231.632,463.234,694.818
"rea","axc",1,"130114","rea_axc_run1_130114","Ang",4000,"A","4","red","Below",1,NA,217,1,1,0,1,NA,1,293645,298445,0,293862,103441,20,1,190.204,190.421,195.004,-103.441,28.41,260.011,491.613,231.632,463.234,694.818
"rea","axc",1,"130114","rea_axc_run1_130114","Bng",1600,"M","8","red","Below",1,NA,251,1,1,0,1,NA,1,303244,308043,0,303495,103441,21,1,199.803,200.054,204.602,-103.441,28.41,260.011,491.613,231.632,463.234,694.818
"rea","axc",1,"130114","rea_axc_run1_130114","BX",4000,"U","X","red","Below",1,1,179,1,1,748,1,1,1,310443,315242,315990,310622,103441,22,1,207.002,207.181,211.801,212.549,28.41,260.011,491.613,231.632,463.234,694.818
"rea","axc",1,"130114","rea_axc_run1_130114","AY",1600,"A","D","red","Below",1,1,456,1,1,377,1,1,1,320042,324858,325235,320498,103441,23,1,216.601,217.057,221.417,221.794,28.41,260.011,491.613,231.632,463.234,694.818
"rea","axc",1,"130114","rea_axc_run1_130114","Ang",2800,"A","2","red","Below",1,NA,258,1,1,0,1,NA,1,327257,332057,0,327515,103441,24,1,223.816,224.074,228.616,-103.441,28.41,260.011,491.613,231.632,463.234,694.818
"rea","axc",1,"130114","rea_axc_run1_130114","BY",1600,"C","D","white","Above",1,1,371,1,1,379,1,1,1,365652,370451,370830,366023,103441,25,1,262.211,262.582,267.01,267.389,28.41,260.011,491.613,231.632,463.234,694.818
"rea","axc",1,"130114","rea_axc_run1_130114","BY",2800,"T","N","white","Above",1,1,362,1,1,286,1,1,1,372851,377650,377936,373213,103441,26,1,269.41,269.772,274.209,274.495,28.41,260.011,491.613,231.632,463.234,694.818
"rea","axc",1,"130114","rea_axc_run1_130114","BY",4000,"D","N","white","Above",1,1,413,1,1,267,1,1,1,381250,386049,386316,381663,103441,27,1,277.809,278.222,282.608,282.875,28.41,260.011,491.613,231.632,463.234,694.818
"rea","axc",1,"130114","rea_axc_run1_130114","Ang",4000,"A","6","red","Below",1,NA,695,1,1,0,1,NA,1,390849,395648,0,391544,103441,28,1,287.408,288.103,292.207,-103.441,28.41,260.011,491.613,231.632,463.234,694.818
"rea","axc",1,"130114","rea_axc_run1_130114","AX",1600,"A","X","white","Above",1,2,454,1,1,686,1,2,1,400447,405247,405933,400901,103441,29,1,297.006,297.46,301.806,302.492,28.41,260.011,491.613,231.632,463.234,694.818
"rea","axc",1,"130114","rea_axc_run1_130114","AX",1600,"A","X","white","Above",1,2,356,1,1,270,1,2,1,407646,412446,412716,408002,103441,30,1,304.205,304.561,309.005,309.275,28.41,260.011,491.613,231.632,463.234,694.818
"rea","axc",1,"130114","rea_axc_run1_130114","BX",4000,"M","X","red","Below",1,1,507,1,1,495,1,1,1,414845,419645,420140,415352,103441,31,1,311.404,311.911,316.204,316.699,28.41,260.011,491.613,231.632,463.234,694.818
"rea","axc",1,"130114","rea_axc_run1_130114","AX",2800,"A","X","white","Above",1,2,0,0,NA,346,0,1,0,424444,429243,429589,0,103441,32,0,321.003,-103.441,325.802,326.148,28.41,260.011,491.613,231.632,463.234,694.818
"rea","axc",1,"130114","rea_axc_run1_130114","BY",4000,"F","C","white","Above",1,1,431,1,1,515,1,1,1,432843,437642,438157,433274,103441,33,1,329.402,329.833,334.201,334.716,28.41,260.011,491.613,231.632,463.234,694.818
"rea","axc",1,"130114","rea_axc_run1_130114","Ang",1600,"A","8","red","Below",1,NA,421,1,1,0,1,NA,1,442442,447258,0,442863,103441,34,1,339.001,339.422,343.817,-103.441,28.41,260.011,491.613,231.632,463.234,694.818
"rea","axc",1,"130114","rea_axc_run1_130114","AX",2800,"A","X","white","Above",1,2,320,1,1,293,1,2,1,449657,454457,454750,449977,103441,35,1,346.216,346.536,351.016,351.309,28.41,260.011,491.613,231.632,463.234,694.818
"rea","axc",1,"130114","rea_axc_run1_130114","Bng",2800,"N","4","red","Below",1,NA,313,1,1,0,1,NA,1,458056,462855,0,458369,103441,36,1,354.615,354.928,359.414,-103.441,28.41,260.011,491.613,231.632,463.234,694.818
"rea","axc",1,"130114","rea_axc_run1_130114","AX",1600,"A","X","white","Above",1,2,356,1,1,276,1,2,1,466455,471254,471530,466811,103441,37,1,363.014,363.37,367.813,368.089,28.41,260.011,491.613,231.632,463.234,694.818
"rea","axc",1,"130114","rea_axc_run1_130114","BY",4000,"D","T","white","Above",1,1,205,1,1,0,0,NA,0,473654,478453,0,473859,103441,38,0,370.213,370.418,375.012,-103.441,28.41,260.011,491.613,231.632,463.234,694.818
"rea","axc",1,"130114","rea_axc_run1_130114","BX",2800,"F","X","red","Below",1,1,493,1,1,699,1,1,1,483253,488052,488751,483746,103441,39,1,379.812,380.305,384.611,385.31,28.41,260.011,491.613,231.632,463.234,694.818
"rea","axc",1,"130114","rea_axc_run1_130114","AY",2800,"A","T","red","Below",1,1,238,1,1,499,1,1,1,491651,496451,496950,491889,103441,40,1,388.21,388.448,393.01,393.509,28.41,260.011,491.613,231.632,463.234,694.818
"rea","axc",1,"130114","rea_axc_run1_130114","Bng",4000,"N","2","red","Below",1,NA,362,1,1,0,1,NA,1,500050,504850,0,500412,103441,41,1,396.609,396.971,401.409,-103.441,28.41,260.011,491.613,231.632,463.234,694.818
"rea","axc",1,"130114","rea_axc_run1_130114","AX",1600,"A","X","white","Above",1,2,474,1,1,289,1,2,1,509649,514448,514737,510123,103441,42,1,406.208,406.682,411.007,411.296,28.41,260.011,491.613,231.632,463.234,694.818
"rea","axc",1,"130114","rea_axc_run1_130114","AX",4000,"A","X","white","Above",1,2,484,1,1,464,1,2,1,516848,521647,522111,517332,103441,43,1,413.407,413.891,418.206,418.67,28.41,260.011,491.613,231.632,463.234,694.818
"rea","axc",1,"130114","rea_axc_run1_130114","AX",1600,"A","X","white","Above",1,2,233,1,1,322,0,1,0,526447,531246,531568,526680,103441,44,0,423.006,423.239,427.805,428.127,28.41,260.011,491.613,231.632,463.234,694.818
"rea","axc",1,"130114","rea_axc_run1_130114","BY",1600,"N","U","white","Above",1,1,428,1,1,424,1,1,1,533646,538445,538869,534074,103441,45,1,430.205,430.633,435.004,435.428,28.41,260.011,491.613,231.632,463.234,694.818
"rea","axc",1,"130114","rea_axc_run1_130114","AY",4000,"A","H","red","Below",1,1,431,1,1,519,1,1,1,540845,545644,546163,541276,103441,46,1,437.404,437.835,442.203,442.722,28.41,260.011,491.613,231.632,463.234,694.818
"rea","axc",1,"130114","rea_axc_run1_130114","BY",2800,"M","P","white","Above",1,1,474,1,1,461,1,1,1,550443,555243,555704,550917,103441,47,1,447.002,447.476,451.802,452.263,28.41,260.011,491.613,231.632,463.234,694.818
"rea","axc",1,"130114","rea_axc_run1_130114","BY",2800,"H","U","white","Above",1,1,371,1,1,554,1,1,1,558842,563642,564196,559213,103441,48,1,455.401,455.772,460.201,460.755,28.41,260.011,491.613,231.632,463.234,694.818
"rea","axc",1,"130114","rea_axc_run1_130114","AX",2800,"A","X","white","Above",1,2,374,1,1,334,1,2,1,597254,602053,602387,597628,103441,49,1,493.813,494.187,498.612,498.946,28.41,260.011,491.613,231.632,463.234,694.818
"rea","axc",1,"130114","rea_axc_run1_130114","Bng",1600,"U","6","red","Below",1,NA,472,1,1,0,1,NA,1,605652,610452,0,606124,103441,50,1,502.211,502.683,507.011,-103.441,28.41,260.011,491.613,231.632,463.234,694.818
"rea","axc",1,"130114","rea_axc_run1_130114","BX",2800,"P","X","red","Below",1,1,286,1,1,681,1,1,1,612852,617651,618332,613138,103441,51,1,509.411,509.697,514.21,514.891,28.41,260.011,491.613,231.632,463.234,694.818
"rea","axc",1,"130114","rea_axc_run1_130114","BY",4000,"T","M","white","Above",1,1,422,1,1,629,1,1,1,621250,626050,626679,621672,103441,52,1,517.809,518.231,522.609,523.238,28.41,260.011,491.613,231.632,463.234,694.818
"rea","axc",1,"130114","rea_axc_run1_130114","BY",1600,"U","D","white","Above",1,1,248,1,1,486,1,1,1,630849,635648,636134,631097,103441,53,1,527.408,527.656,532.207,532.693,28.41,260.011,491.613,231.632,463.234,694.818
"rea","axc",1,"130114","rea_axc_run1_130114","BY",1600,"P","H","white","Above",1,1,315,1,1,445,1,1,1,638048,642847,643292,638363,103441,54,1,534.607,534.922,539.406,539.851,28.41,260.011,491.613,231.632,463.234,694.818
"rea","axc",1,"130114","rea_axc_run1_130114","Ang",4000,"A","2","red","Below",1,NA,441,1,1,0,1,NA,1,645247,650046,0,645688,103441,55,1,541.806,542.247,546.605,-103.441,28.41,260.011,491.613,231.632,463.234,694.818
"rea","axc",1,"130114","rea_axc_run1_130114","BY",4000,"M","P","white","Above",1,1,306,1,1,536,1,1,1,654846,659645,660181,655152,103441,56,1,551.405,551.711,556.204,556.74,28.41,260.011,491.613,231.632,463.234,694.818
"rea","axc",1,"130114","rea_axc_run1_130114","AX",4000,"A","X","white","Above",1,2,411,1,1,587,1,2,1,664444,669244,669831,664855,103441,57,1,561.003,561.414,565.803,566.39,28.41,260.011,491.613,231.632,463.234,694.818
"rea","axc",1,"130114","rea_axc_run1_130114","Bng",2800,"U","2","red","Below",1,NA,525,1,1,0,1,NA,1,674043,678842,0,674568,103441,58,1,570.602,571.127,575.401,-103.441,28.41,260.011,491.613,231.632,463.234,694.818
"rea","axc",1,"130114","rea_axc_run1_130114","BY",2800,"T","N","white","Above",1,1,0,0,NA,407,1,1,0,682442,687258,687665,0,103441,59,0,579.001,-103.441,583.817,584.224,28.41,260.011,491.613,231.632,463.234,694.818
"rea","axc",1,"130114","rea_axc_run1_130114","AX",1600,"A","X","white","Above",1,2,624,1,1,243,1,2,1,690857,695657,695900,691481,103441,60,1,587.416,588.04,592.216,592.459,28.41,260.011,491.613,231.632,463.234,694.818
"rea","axc",1,"130114","rea_axc_run1_130114","AX",2800,"A","X","white","Above",1,2,372,1,1,205,1,2,1,698056,702856,703061,698428,103441,61,1,594.615,594.987,599.415,599.62,28.41,260.011,491.613,231.632,463.234,694.818
"rea","axc",1,"130114","rea_axc_run1_130114","Ang",4000,"A","6","red","Below",1,NA,375,1,1,0,1,NA,1,706455,711255,0,706830,103441,62,1,603.014,603.389,607.814,-103.441,28.41,260.011,491.613,231.632,463.234,694.818
"rea","axc",1,"130114","rea_axc_run1_130114","AY",2800,"A","T","red","Below",1,1,336,1,1,265,0,2,0,716054,720853,721118,716390,103441,63,0,612.613,612.949,617.412,617.677,28.41,260.011,491.613,231.632,463.234,694.818
"rea","axc",1,"130114","rea_axc_run1_130114","AX",1600,"A","X","white","Above",1,2,313,1,1,217,1,2,1,724453,729252,729469,724766,103441,64,1,621.012,621.325,625.811,626.028,28.41,260.011,491.613,231.632,463.234,694.818
"rea","axc",1,"130114","rea_axc_run1_130114","AX",4000,"A","X","white","Above",1,2,294,1,1,322,1,2,1,731652,736451,736773,731946,103441,65,1,628.211,628.505,633.01,633.332,28.41,260.011,491.613,231.632,463.234,694.818
"rea","axc",1,"130114","rea_axc_run1_130114","AX",1600,"A","X","white","Above",1,2,317,1,1,620,1,2,1,741251,746050,746670,741568,103441,66,1,637.81,638.127,642.609,643.229,28.41,260.011,491.613,231.632,463.234,694.818
"rea","axc",1,"130114","rea_axc_run1_130114","BY",1600,"D","T","white","Above",1,1,391,1,1,212,1,1,1,748450,753249,753461,748841,103441,67,1,645.009,645.4,649.808,650.02,28.41,260.011,491.613,231.632,463.234,694.818
"rea","axc",1,"130114","rea_axc_run1_130114","BY",1600,"C","D","white","Above",1,1,295,1,1,367,1,1,1,755649,760448,760815,755944,103441,68,1,652.208,652.503,657.007,657.374,28.41,260.011,491.613,231.632,463.234,694.818
"rea","axc",1,"130114","rea_axc_run1_130114","BY",4000,"H","T","white","Above",1,1,284,1,1,294,1,1,1,762848,767647,767941,763132,103441,69,1,659.407,659.691,664.206,664.5,28.41,260.011,491.613,231.632,463.234,694.818
"rea","axc",1,"130114","rea_axc_run1_130114","AY",2800,"A","H","red","Below",1,1,219,1,1,322,1,1,1,772446,777246,777568,772665,103441,70,1,669.005,669.224,673.805,674.127,28.41,260.011,491.613,231.632,463.234,694.818
"rea","axc",1,"130114","rea_axc_run1_130114","AX",2800,"A","X","white","Above",1,2,343,1,1,322,0,1,0,780845,785644,785966,781188,103441,71,0,677.404,677.747,682.203,682.525,28.41,260.011,491.613,231.632,463.234,694.818
"rea","axc",1,"130114","rea_axc_run1_130114","BX",4000,"P","X","red","Below",1,1,270,1,1,491,1,1,1,789244,794043,794534,789514,103441,72,1,685.803,686.073,690.602,691.093,28.41,260.011,491.613,231.632,463.234,694.818
"rea","axc",2,"130114","rea_axc_run2_130114","BY",1600,"N","D","white","Above",1,1,334,1,1,490,1,1,1,62330,67129,67619,62664,31714,1,1,30.616,30.95,35.415,35.905,28.416,260.018,491.619,231.622,463.223,694.825
"rea","axc",2,"130114","rea_axc_run2_130114","AX",2800,"A","X","white","Above",1,2,420,1,1,313,1,2,1,69529,74328,74641,69949,31714,2,1,37.815,38.235,42.614,42.927,28.416,260.018,491.619,231.622,463.223,694.825
"rea","axc",2,"130114","rea_axc_run2_130114","BY",1600,"H","F","white","Above",1,1,374,1,1,306,1,1,1,77928,82727,83033,78302,31714,3,1,46.214,46.588,51.013,51.319,28.416,260.018,491.619,231.622,463.223,694.825
"rea","axc",2,"130114","rea_axc_run2_130114","BY",1600,"U","T","white","Above",1,1,273,1,1,256,1,1,1,85127,89926,90182,85400,31714,4,1,53.413,53.686,58.212,58.468,28.416,260.018,491.619,231.622,463.223,694.825
"rea","axc",2,"130114","rea_axc_run2_130114","AX",2800,"A","X","white","Above",1,2,321,1,1,333,1,2,1,92326,97125,97458,92647,31714,5,1,60.612,60.933,65.411,65.744,28.416,260.018,491.619,231.622,463.223,694.825
"rea","axc",2,"130114","rea_axc_run2_130114","Ang",2800,"A","7","red","Below",1,NA,210,1,1,0,1,NA,1,100725,105524,0,100935,31714,6,1,69.011,69.221,73.81,-31.714,28.416,260.018,491.619,231.622,463.223,694.825
"rea","axc",2,"130114","rea_axc_run2_130114","BY",4000,"C","N","white","Above",1,1,261,1,1,332,1,1,1,109123,113923,114255,109384,31714,7,1,77.409,77.67,82.209,82.541,28.416,260.018,491.619,231.622,463.223,694.825
"rea","axc",2,"130114","rea_axc_run2_130114","AY",2800,"A","M","red","Below",1,1,375,1,1,483,1,1,1,118722,123521,124004,119097,31714,8,1,87.008,87.383,91.807,92.29,28.416,260.018,491.619,231.622,463.223,694.825
"rea","axc",2,"130114","rea_axc_run2_130114","AX",1600,"A","X","white","Above",1,2,278,1,1,259,1,2,1,127121,131920,132179,127399,31714,9,1,95.407,95.685,100.206,100.465,28.416,260.018,491.619,231.622,463.223,694.825
"rea","axc",2,"130114","rea_axc_run2_130114","AX",4000,"A","X","white","Above",1,2,276,1,1,248,1,2,1,134320,139119,139367,134596,31714,10,1,102.606,102.882,107.405,107.653,28.416,260.018,491.619,231.622,463.223,694.825
"rea","axc",2,"130114","rea_axc_run2_130114","Bng",4000,"T","9","red","Below",1,NA,351,1,1,0,1,NA,1,143919,148718,0,144270,31714,11,1,112.205,112.556,117.004,-31.714,28.416,260.018,491.619,231.622,463.223,694.825
"rea","axc",2,"130114","rea_axc_run2_130114","Ang",4000,"A","9","red","Below",1,NA,376,1,1,0,1,NA,1,153534,158333,0,153910,31714,12,1,121.82,122.196,126.619,-31.714,28.416,260.018,491.619,231.622,463.223,694.825
"rea","axc",2,"130114","rea_axc_run2_130114","AX",4000,"A","X","white","Above",1,2,477,1,1,518,1,2,1,163133,167932,168450,163610,31714,13,1,131.419,131.896,136.218,136.736,28.416,260.018,491.619,231.622,463.223,694.825
"rea","axc",2,"130114","rea_axc_run2_130114","AX",4000,"A","X","white","Above",1,2,483,1,1,235,1,2,1,172731,177531,177766,173214,31714,14,1,141.017,141.5,145.817,146.052,28.416,260.018,491.619,231.622,463.223,694.825
"rea","axc",2,"130114","rea_axc_run2_130114","BY",1600,"D","U","white","Above",1,1,293,1,1,0,0,NA,0,182330,187129,0,182623,31714,15,0,150.616,150.909,155.415,-31.714,28.416,260.018,491.619,231.622,463.223,694.825
"rea","axc",2,"130114","rea_axc_run2_130114","BY",2800,"T","H","white","Above",1,1,360,1,1,465,1,1,1,189529,194328,194793,189889,31714,16,1,157.815,158.175,162.614,163.079,28.416,260.018,491.619,231.622,463.223,694.825
"rea","axc",2,"130114","rea_axc_run2_130114","BY",1600,"F","D","white","Above",1,1,340,1,1,242,1,1,1,197928,202727,202969,198268,31714,17,1,166.214,166.554,171.013,171.255,28.416,260.018,491.619,231.622,463.223,694.825
"rea","axc",2,"130114","rea_axc_run2_130114","BX",4000,"H","X","red","Below",1,1,364,1,1,522,1,1,1,205127,209926,210448,205491,31714,18,1,173.413,173.777,178.212,178.734,28.416,260.018,491.619,231.622,463.223,694.825
"rea","axc",2,"130114","rea_axc_run2_130114","AY",2800,"A","C","red","Below",1,1,176,1,1,586,1,1,1,214726,219525,220111,214902,31714,19,1,183.012,183.188,187.811,188.397,28.416,260.018,491.619,231.622,463.223,694.825
"rea","axc",2,"130114","rea_axc_run2_130114","Bng",1600,"U","5","red","Below",1,NA,362,1,1,0,1,NA,1,223124,227924,0,223486,31714,20,1,191.41,191.772,196.21,-31.714,28.416,260.018,491.619,231.622,463.223,694.825
"rea","axc",2,"130114","rea_axc_run2_130114","AX",2800,"A","X","white","Above",1,2,305,1,1,405,0,1,0,230323,235123,235528,230628,31714,21,0,198.609,198.914,203.409,203.814,28.416,260.018,491.619,231.622,463.223,694.825
"rea","axc",2,"130114","rea_axc_run2_130114","BY",2800,"D","C","white","Above",1,1,357,1,1,349,1,1,1,238722,243522,243871,239079,31714,22,1,207.008,207.365,211.808,212.157,28.416,260.018,491.619,231.622,463.223,694.825
"rea","axc",2,"130114","rea_axc_run2_130114","AX",4000,"A","X","white","Above",1,2,375,1,1,293,1,2,1,247121,251921,252214,247496,31714,23,1,215.407,215.782,220.207,220.5,28.416,260.018,491.619,231.622,463.223,694.825
"rea","axc",2,"130114","rea_axc_run2_130114","BX",1600,"T","X","red","Below",1,1,465,1,1,415,1,1,1,256720,261519,261934,257185,31714,24,1,225.006,225.471,229.805,230.22,28.416,260.018,491.619,231.622,463.223,694.825
"rea","axc",2,"130114","rea_axc_run2_130114","BY",1600,"C","F","white","Above",1,1,369,1,1,342,1,1,1,293931,298731,299073,294300,31714,25,1,262.217,262.586,267.017,267.359,28.416,260.018,491.619,231.622,463.223,694.825
"rea","axc",2,"130114","rea_axc_run2_130114","Bng",4000,"N","5","red","Below",1,NA,343,1,1,0,1,NA,1,301130,305930,0,301473,31714,26,1,269.416,269.759,274.216,-31.714,28.416,260.018,491.619,231.622,463.223,694.825
"rea","axc",2,"130114","rea_axc_run2_130114","Ang",4000,"A","5","red","Below",1,NA,495,1,1,0,1,NA,1,310729,315528,0,311224,31714,27,1,279.015,279.51,283.814,-31.714,28.416,260.018,491.619,231.622,463.223,694.825
"rea","axc",2,"130114","rea_axc_run2_130114","BY",4000,"M","N","white","Above",1,1,490,1,1,463,1,1,1,320328,325127,325590,320818,31714,28,1,288.614,289.104,293.413,293.876,28.416,260.018,491.619,231.622,463.223,694.825
"rea","axc",2,"130114","rea_axc_run2_130114","AX",2800,"A","X","white","Above",1,2,512,1,1,391,1,2,1,329926,334726,335117,330438,31714,29,1,298.212,298.724,303.012,303.403,28.416,260.018,491.619,231.622,463.223,694.825
"rea","axc",2,"130114","rea_axc_run2_130114","AX",2800,"A","X","white","Above",1,2,0,0,NA,316,0,1,0,338325,343125,343441,0,31714,30,0,306.611,-31.714,311.411,311.727,28.416,260.018,491.619,231.622,463.223,694.825
"rea","axc",2,"130114","rea_axc_run2_130114","AY",1600,"A","U","red","Below",1,1,759,1,1,442,1,1,1,346724,351524,351966,347483,31714,31,1,315.01,315.769,319.81,320.252,28.416,260.018,491.619,231.622,463.223,694.825
"rea","axc",2,"130114","rea_axc_run2_130114","AY",1600,"A","F","red","Below",1,1,254,1,1,331,1,1,1,353923,358723,359054,354177,31714,32,1,322.209,322.463,327.009,327.34,28.416,260.018,491.619,231.622,463.223,694.825
"rea","axc",2,"130114","rea_axc_run2_130114","BX",1600,"N","X","red","Below",1,1,365,1,1,440,1,1,1,361122,365922,366362,361487,31714,33,1,329.408,329.773,334.208,334.648,28.416,260.018,491.619,231.622,463.223,694.825
"rea","axc",2,"130114","rea_axc_run2_130114","Ang",2800,"A","1","red","Below",1,NA,933,1,1,0,1,NA,1,368321,373121,0,369254,31714,34,1,336.607,337.54,341.407,-31.714,28.416,260.018,491.619,231.622,463.223,694.825
"rea","axc",2,"130114","rea_axc_run2_130114","AX",2800,"A","X","white","Above",1,2,0,0,NA,670,1,2,0,376720,381519,382189,0,31714,35,0,345.006,-31.714,349.805,350.475,28.416,260.018,491.619,231.622,463.223,694.825
"rea","axc",2,"130114","rea_axc_run2_130114","AX",4000,"A","X","white","Above",1,2,364,1,1,253,1,2,1,385119,389918,390171,385483,31714,36,1,353.405,353.769,358.204,358.457,28.416,260.018,491.619,231.622,463.223,694.825
"rea","axc",2,"130114","rea_axc_run2_130114","AX",1600,"A","X","white","Above",1,2,292,1,1,332,1,2,1,394718,399534,399866,395010,31714,37,1,363.004,363.296,367.82,368.152,28.416,260.018,491.619,231.622,463.223,694.825
"rea","axc",2,"130114","rea_axc_run2_130114","AX",2800,"A","X","white","Above",1,2,181,1,1,505,1,2,1,401933,406733,407238,402114,31714,38,1,370.219,370.4,375.019,375.524,28.416,260.018,491.619,231.622,463.223,694.825
"rea","axc",2,"130114","rea_axc_run2_130114","AX",2800,"A","X","white","Above",1,2,332,1,1,509,1,2,1,410332,415131,415640,410664,31714,39,1,378.618,378.95,383.417,383.926,28.416,260.018,491.619,231.622,463.223,694.825
"rea","axc",2,"130114","rea_axc_run2_130114","BY",2800,"N","H","white","Above",1,1,457,1,1,410,1,1,1,418731,423530,423940,419188,31714,40,1,387.017,387.474,391.816,392.226,28.416,260.018,491.619,231.622,463.223,694.825
"rea","axc",2,"130114","rea_axc_run2_130114","BX",4000,"D","X","red","Below",1,1,543,1,1,481,1,1,1,427130,431929,432410,427673,31714,41,1,395.416,395.959,400.215,400.696,28.416,260.018,491.619,231.622,463.223,694.825
"rea","axc",2,"130114","rea_axc_run2_130114","BY",1600,"M","U","white","Above",1,1,196,1,1,226,1,1,1,436728,441528,441754,436924,31714,42,1,405.014,405.21,409.814,410.04,28.416,260.018,491.619,231.622,463.223,694.825
"rea","axc",2,"130114","rea_axc_run2_130114","AX",1600,"A","X","white","Above",1,2,414,1,1,344,1,2,1,443928,448727,449071,444342,31714,43,1,412.214,412.628,417.013,417.357,28.416,260.018,491.619,231.622,463.223,694.825
"rea","axc",2,"130114","rea_axc_run2_130114","BY",4000,"P","C","white","Above",1,1,362,1,1,540,1,1,1,451127,455926,456466,451489,31714,44,1,419.413,419.775,424.212,424.752,28.416,260.018,491.619,231.622,463.223,694.825
"rea","axc",2,"130114","rea_axc_run2_130114","BY",4000,"U","F","white","Above",1,1,0,0,NA,908,1,1,0,460725,465525,466433,0,31714,45,0,429.011,-31.714,433.811,434.719,28.416,260.018,491.619,231.622,463.223,694.825
"rea","axc",2,"130114","rea_axc_run2_130114","BY",1600,"T","P","white","Above",1,1,318,1,1,389,1,1,1,470324,475123,475512,470642,31714,46,1,438.61,438.928,443.409,443.798,28.416,260.018,491.619,231.622,463.223,694.825
"rea","axc",2,"130114","rea_axc_run2_130114","Bng",4000,"P","4","red","Below",1,NA,437,1,1,0,1,NA,1,477523,482322,0,477960,31714,47,1,445.809,446.246,450.608,-31.714,28.416,260.018,491.619,231.622,463.223,694.825
"rea","axc",2,"130114","rea_axc_run2_130114","BY",2800,"F","H","white","Above",1,1,367,1,1,437,1,1,1,487122,491921,492358,487489,31714,48,1,455.408,455.775,460.207,460.644,28.416,260.018,491.619,231.622,463.223,694.825
"rea","axc",2,"130114","rea_axc_run2_130114","BY",4000,"P","T","white","Above",1,1,228,1,1,408,1,1,1,525533,530332,530740,525761,31714,49,1,493.819,494.047,498.618,499.026,28.416,260.018,491.619,231.622,463.223,694.825
"rea","axc",2,"130114","rea_axc_run2_130114","AY",2800,"A","P","red","Below",1,1,311,1,1,357,1,1,1,535132,539931,540288,535443,31714,50,1,503.418,503.729,508.217,508.574,28.416,260.018,491.619,231.622,463.223,694.825
"rea","axc",2,"130114","rea_axc_run2_130114","AX",1600,"A","X","white","Above",1,2,485,1,1,532,1,2,1,543530,548330,548862,544015,31714,51,1,511.816,512.301,516.616,517.148,28.416,260.018,491.619,231.622,463.223,694.825
"rea","axc",2,"130114","rea_axc_run2_130114","BY",1600,"H","C","white","Above",1,1,201,1,1,416,1,1,1,550730,555529,555945,550931,31714,52,1,519.016,519.217,523.815,524.231,28.416,260.018,491.619,231.622,463.223,694.825
"rea","axc",2,"130114","rea_axc_run2_130114","BY",2800,"F","D","white","Above",1,1,415,1,1,316,1,1,1,557929,562728,563044,558344,31714,53,1,526.215,526.63,531.014,531.33,28.416,260.018,491.619,231.622,463.223,694.825
"rea","axc",2,"130114","rea_axc_run2_130114","BY",2800,"C","F","white","Above",1,1,265,1,1,375,1,1,1,566327,571127,571502,566592,31714,54,1,534.613,534.878,539.413,539.788,28.416,260.018,491.619,231.622,463.223,694.825
"rea","axc",2,"130114","rea_axc_run2_130114","BY",1600,"M","U","white","Above",1,1,360,1,1,353,1,1,1,574726,579526,579879,575086,31714,55,1,543.012,543.372,547.812,548.165,28.416,260.018,491.619,231.622,463.223,694.825
"rea","axc",2,"130114","rea_axc_run2_130114","AX",1600,"A","X","white","Above",1,2,297,1,1,274,1,2,1,581925,586725,586999,582222,31714,56,1,550.211,550.508,555.011,555.285,28.416,260.018,491.619,231.622,463.223,694.825
"rea","axc",2,"130114","rea_axc_run2_130114","AX",4000,"A","X","white","Above",1,2,280,1,1,294,1,2,1,589124,593924,594218,589404,31714,57,1,557.41,557.69,562.21,562.504,28.416,260.018,491.619,231.622,463.223,694.825
"rea","axc",2,"130114","rea_axc_run2_130114","BX",4000,"D","X","red","Below",1,1,247,1,1,548,1,1,1,598723,603522,604070,598970,31714,58,1,567.009,567.256,571.808,572.356,28.416,260.018,491.619,231.622,463.223,694.825
"rea","axc",2,"130114","rea_axc_run2_130114","AX",2800,"A","X","white","Above",1,2,220,1,1,264,1,2,1,608322,613121,613385,608542,31714,59,1,576.608,576.828,581.407,581.671,28.416,260.018,491.619,231.622,463.223,694.825
"rea","axc",2,"130114","rea_axc_run2_130114","BY",4000,"T","P","white","Above",1,1,0,0,NA,244,1,1,0,616720,621520,621764,0,31714,60,0,585.006,-31.714,589.806,590.05,28.416,260.018,491.619,231.622,463.223,694.825
"rea","axc",2,"130114","rea_axc_run2_130114","AX",2800,"A","X","white","Above",1,2,439,1,1,375,1,2,1,626319,631118,631493,626758,31714,61,1,594.605,595.044,599.404,599.779,28.416,260.018,491.619,231.622,463.223,694.825
"rea","axc",2,"130114","rea_axc_run2_130114","AY",4000,"A","U","red","Below",1,1,295,1,1,248,1,1,1,634718,639534,639782,635013,31714,62,1,603.004,603.299,607.82,608.068,28.416,260.018,491.619,231.622,463.223,694.825
"rea","axc",2,"130114","rea_axc_run2_130114","Bng",1600,"P","9","red","Below",1,NA,254,1,1,415,0,1,0,644333,649133,649548,644587,31714,63,0,612.619,612.873,617.419,617.834,28.416,260.018,491.619,231.622,463.223,694.825
"rea","axc",2,"130114","rea_axc_run2_130114","AX",4000,"A","X","white","Above",1,2,426,1,1,593,1,2,1,651532,656332,656925,651958,31714,64,1,619.818,620.244,624.618,625.211,28.416,260.018,491.619,231.622,463.223,694.825
"rea","axc",2,"130114","rea_axc_run2_130114","Ang",2800,"A","3","red","Below",1,NA,380,1,1,0,1,NA,1,661131,665930,0,661511,31714,65,1,629.417,629.797,634.216,-31.714,28.416,260.018,491.619,231.622,463.223,694.825
"rea","axc",2,"130114","rea_axc_run2_130114","AX",4000,"A","X","white","Above",1,2,331,1,1,1055,1,2,1,669530,674329,675384,669861,31714,66,1,637.816,638.147,642.615,643.67,28.416,260.018,491.619,231.622,463.223,694.825
"rea","axc",2,"130114","rea_axc_run2_130114","Bng",2800,"D","4","red","Below",1,NA,158,1,1,0,1,NA,1,679129,683928,0,679287,31714,67,1,647.415,647.573,652.214,-31.714,28.416,260.018,491.619,231.622,463.223,694.825
"rea","axc",2,"130114","rea_axc_run2_130114","Ang",1600,"A","3","red","Below",1,NA,391,1,1,0,1,NA,1,687527,692327,0,687918,31714,68,1,655.813,656.204,660.613,-31.714,28.416,260.018,491.619,231.622,463.223,694.825
"rea","axc",2,"130114","rea_axc_run2_130114","AX",4000,"A","X","white","Above",1,2,215,1,1,297,1,2,1,694726,699526,699823,694941,31714,69,1,663.012,663.227,667.812,668.109,28.416,260.018,491.619,231.622,463.223,694.825
"rea","axc",2,"130114","rea_axc_run2_130114","BY",1600,"F","H","white","Above",1,1,253,1,1,342,1,1,1,704325,709124,709466,704578,31714,70,1,672.611,672.864,677.41,677.752,28.416,260.018,491.619,231.622,463.223,694.825
"rea","axc",2,"130114","rea_axc_run2_130114","BX",1600,"T","X","red","Below",1,1,398,1,1,578,1,1,1,711524,716323,716901,711922,31714,71,1,679.81,680.208,684.609,685.187,28.416,260.018,491.619,231.622,463.223,694.825
"rea","axc",2,"130114","rea_axc_run2_130114","BY",2800,"U","T","white","Above",1,1,303,1,1,367,1,1,1,718723,723522,723889,719026,31714,72,1,687.009,687.312,691.808,692.175,28.416,260.018,491.619,231.622,463.223,694.825
"bas","axc",1,"130518","bas_axc_run1_130518","AX",1600,"A","X","white","center",1,2,883,1,1,487,1,2,1,176056,180855,181342,176939,145441,1,1,30.615,31.498,35.414,35.901,28.432,260.028,491.624,231.632,463.229,694.825
"bas","axc",1,"130518","bas_axc_run1_130518","AX",2800,"A","X","white","center",1,2,565,1,1,403,1,2,1,183271,188070,188473,183836,145441,2,1,37.83,38.395,42.629,43.032,28.432,260.028,491.624,231.632,463.229,694.825
"bas","axc",1,"130518","bas_axc_run1_130518","AX",1600,"A","X","white","center",1,2,348,1,1,287,1,2,1,191670,196469,196756,192018,145441,3,1,46.229,46.577,51.028,51.315,28.432,260.028,491.624,231.632,463.229,694.825
"bas","axc",1,"130518","bas_axc_run1_130518","BY",2800,"T","M","white","center",1,1,561,1,1,352,1,1,1,198869,203668,204020,199430,145441,4,1,53.428,53.989,58.227,58.579,28.432,260.028,491.624,231.632,463.229,694.825
"bas","axc",1,"130518","bas_axc_run1_130518","AX",4000,"A","X","white","center",1,2,489,1,1,328,1,2,1,207267,212066,212394,207756,145441,5,1,61.826,62.315,66.625,66.953,28.432,260.028,491.624,231.632,463.229,694.825
"bas","axc",1,"130518","bas_axc_run1_130518","BY",4000,"N","U","white","center",1,1,471,1,1,655,1,1,1,216866,221665,222320,217337,145441,6,1,71.425,71.896,76.224,76.879,28.432,260.028,491.624,231.632,463.229,694.825
"bas","axc",1,"130518","bas_axc_run1_130518","Bng",1600,"T","9","white","center",1,NA,509,1,1,0,1,NA,1,226464,231263,0,226973,145441,7,1,81.023,81.532,85.822,-145.441,28.432,260.028,491.624,231.632,463.229,694.825
"bas","axc",1,"130518","bas_axc_run1_130518","BY",2800,"C","D","white","center",1,1,372,1,1,514,1,1,1,233663,238462,238976,234035,145441,8,1,88.222,88.594,93.021,93.535,28.432,260.028,491.624,231.632,463.229,694.825
"bas","axc",1,"130518","bas_axc_run1_130518","BX",4000,"F","X","white","center",1,1,404,1,1,584,1,1,1,242062,246861,247445,242466,145441,9,1,96.621,97.025,101.42,102.004,28.432,260.028,491.624,231.632,463.229,694.825
"bas","axc",1,"130518","bas_axc_run1_130518","BY",2800,"F","M","white","center",1,1,447,1,1,418,1,1,1,251660,256459,256877,252107,145441,10,1,106.219,106.666,111.018,111.436,28.432,260.028,491.624,231.632,463.229,694.825
"bas","axc",1,"130518","bas_axc_run1_130518","AX",1600,"A","X","white","center",1,2,422,1,1,383,1,2,1,260059,264858,265241,260481,145441,11,1,114.618,115.04,119.417,119.8,28.432,260.028,491.624,231.632,463.229,694.825
"bas","axc",1,"130518","bas_axc_run1_130518","AY",4000,"A","H","white","center",1,1,364,1,1,430,1,1,1,267258,272057,272487,267622,145441,12,1,121.817,122.181,126.616,127.046,28.432,260.028,491.624,231.632,463.229,694.825
"bas","axc",1,"130518","bas_axc_run1_130518","AX",1600,"A","X","white","center",1,2,298,1,1,395,1,2,1,276856,281655,282050,277154,145441,13,1,131.415,131.713,136.214,136.609,28.432,260.028,491.624,231.632,463.229,694.825
"bas","axc",1,"130518","bas_axc_run1_130518","BY",1600,"C","M","white","center",1,1,400,1,1,493,1,1,1,284055,288871,289364,284455,145441,14,1,138.614,139.014,143.43,143.923,28.432,260.028,491.624,231.632,463.229,694.825
"bas","axc",1,"130518","bas_axc_run1_130518","Ang",2800,"A","7","white","center",1,NA,309,1,1,0,1,NA,1,291271,296070,0,291580,145441,15,1,145.83,146.139,150.629,-145.441,28.432,260.028,491.624,231.632,463.229,694.825
"bas","axc",1,"130518","bas_axc_run1_130518","AX",2800,"A","X","white","center",1,2,371,1,1,334,1,2,1,299669,304468,304802,300040,145441,16,1,154.228,154.599,159.027,159.361,28.432,260.028,491.624,231.632,463.229,694.825
"bas","axc",1,"130518","bas_axc_run1_130518","AX",2800,"A","X","white","center",1,2,424,1,1,376,1,2,1,308068,312867,313243,308492,145441,17,1,162.627,163.051,167.426,167.802,28.432,260.028,491.624,231.632,463.229,694.825
"bas","axc",1,"130518","bas_axc_run1_130518","Bng",1600,"N","3","white","center",1,NA,508,1,1,0,1,NA,1,316466,321266,0,316974,145441,18,1,171.025,171.533,175.825,-145.441,28.432,260.028,491.624,231.632,463.229,694.825
"bas","axc",1,"130518","bas_axc_run1_130518","BY",1600,"T","N","white","center",1,1,614,1,1,406,1,1,1,323665,328465,328871,324279,145441,19,1,178.224,178.838,183.024,183.43,28.432,260.028,491.624,231.632,463.229,694.825
"bas","axc",1,"130518","bas_axc_run1_130518","BY",4000,"H","T","white","center",1,1,367,1,1,342,1,1,1,330864,335663,336005,331231,145441,20,1,185.423,185.79,190.222,190.564,28.432,260.028,491.624,231.632,463.229,694.825
"bas","axc",1,"130518","bas_axc_run1_130518","AY",4000,"A","T","white","center",1,1,362,1,1,534,1,1,1,340463,345262,345796,340825,145441,21,1,195.022,195.384,199.821,200.355,28.432,260.028,491.624,231.632,463.229,694.825
"bas","axc",1,"130518","bas_axc_run1_130518","BX",2800,"C","X","white","center",1,1,385,1,1,402,1,1,1,350061,354860,355262,350446,145441,22,1,204.62,205.005,209.419,209.821,28.432,260.028,491.624,231.632,463.229,694.825
"bas","axc",1,"130518","bas_axc_run1_130518","BY",4000,"N","P","white","center",1,1,537,1,1,436,1,1,1,358460,363259,363695,358997,145441,23,1,213.019,213.556,217.818,218.254,28.432,260.028,491.624,231.632,463.229,694.825
"bas","axc",1,"130518","bas_axc_run1_130518","Ang",4000,"A","5","white","center",1,NA,489,1,1,0,1,NA,1,368058,372857,0,368547,145441,24,1,222.617,223.106,227.416,-145.441,28.432,260.028,491.624,231.632,463.229,694.825
