"session","task","run","subj","name","trial.type","iti","cue","probe","target.color","location","cue.cresp","target.cresp","cue.rt","cue.acc","cue.resp","target.rt","target.acc","target.resp","trialacc","time.cue.onset.abs","time.target.onset.abs","time.target.rt.abs","time.cue.rt.abs","time.scan.start","trial.num","acc","time.cue.onset","time.cue.rt","time.target.onset","time.target.rt","time.block1.on","time.block2.on","time.block3.on","time.block1.off","time.block2.off","time.block3.off"
"bas","axc",1,"197449","bas_axc_run1_197449","AX",4000,"A","X","white","center",1,2,343,1,1,411,1,2,1,146045,150859,151270,146388,115412,1,1,30.633,30.976,35.447,35.858,28.433,260.047,491.647,231.633,463.247,694.847
"bas","axc",1,"197449","bas_axc_run1_197449","Ang",2800,"A","1","white","center",1,NA,494,1,1,0,1,NA,1,155659,160459,0,156153,115412,2,1,40.247,40.741,45.047,-115.412,28.433,260.047,491.647,231.633,463.247,694.847
"bas","axc",1,"197449","bas_axc_run1_197449","BY",4000,"T","M","white","center",1,1,623,1,1,1401,0,2,0,164059,168859,170260,164682,115412,3,0,48.647,49.27,53.447,54.848,28.433,260.047,491.647,231.633,463.247,694.847
"bas","axc",1,"197449","bas_axc_run1_197449","AX",4000,"A","X","white","center",1,2,328,1,1,672,1,2,1,173659,178445,179117,173987,115412,4,1,58.247,58.575,63.033,63.705,28.433,260.047,491.647,231.633,463.247,694.847
"bas","axc",1,"197449","bas_axc_run1_197449","BX",1600,"P","X","white","center",1,1,505,1,1,934,1,1,1,183245,188045,188979,183750,115412,5,1,67.833,68.338,72.633,73.567,28.433,260.047,491.647,231.633,463.247,694.847
"bas","axc",1,"197449","bas_axc_run1_197449","BY",1600,"U","P","white","center",1,1,919,1,1,983,1,1,1,190459,195259,196242,191378,115412,6,1,75.047,75.966,79.847,80.83,28.433,260.047,491.647,231.633,463.247,694.847
"bas","axc",1,"197449","bas_axc_run1_197449","BY",2800,"H","T","white","center",1,1,0,0,NA,0,0,NA,0,197659,202459,0,0,115412,7,0,82.247,-115.412,87.047,-115.412,28.433,260.047,491.647,231.633,463.247,694.847
"bas","axc",1,"197449","bas_axc_run1_197449","AY",1600,"A","T","white","center",1,1,604,1,1,707,1,1,1,206059,210859,211566,206663,115412,8,1,90.647,91.251,95.447,96.154,28.433,260.047,491.647,231.633,463.247,694.847
"bas","axc",1,"197449","bas_axc_run1_197449","Bng",2800,"C","8","white","center",1,NA,0,0,NA,0,1,NA,0,213259,218045,0,0,115412,9,0,97.847,-115.412,102.633,-115.412,28.433,260.047,491.647,231.633,463.247,694.847
"bas","axc",1,"197449","bas_axc_run1_197449","Ang",4000,"A","7","white","center",1,NA,0,0,NA,0,1,NA,0,221645,226445,0,0,115412,10,0,106.233,-115.412,111.033,-115.412,28.433,260.047,491.647,231.633,463.247,694.847
"bas","axc",1,"197449","bas_axc_run1_197449","AY",2800,"A","D","white","center",1,1,433,1,1,764,1,1,1,231259,236059,236823,231692,115412,11,1,115.847,116.28,120.647,121.411,28.433,260.047,491.647,231.633,463.247,694.847
"bas","axc",1,"197449","bas_axc_run1_197449","BX",1600,"U","X","white","center",1,1,0,0,NA,484,1,1,0,239659,244459,244943,0,115412,12,0,124.247,-115.412,129.047,129.531,28.433,260.047,491.647,231.633,463.247,694.847
"bas","axc",1,"197449","bas_axc_run1_197449","AX",2800,"A","X","white","center",1,2,491,1,1,0,0,NA,0,246859,251659,0,247350,115412,13,0,131.447,131.938,136.247,-115.412,28.433,260.047,491.647,231.633,463.247,694.847
"bas","axc",1,"197449","bas_axc_run1_197449","AX",2800,"A","X","white","center",1,2,0,0,NA,653,0,1,0,255259,260045,260698,0,115412,14,0,139.847,-115.412,144.633,145.286,28.433,260.047,491.647,231.633,463.247,694.847
"bas","axc",1,"197449","bas_axc_run1_197449","BY",4000,"P","H","white","center",1,1,909,1,1,0,0,NA,0,263645,268445,0,264554,115412,15,0,148.233,149.142,153.033,-115.412,28.433,260.047,491.647,231.633,463.247,694.847
"bas","axc",1,"197449","bas_axc_run1_197449","BY",1600,"U","D","white","center",1,1,0,0,NA,1243,1,1,0,273259,278059,279302,0,115412,16,0,157.847,-115.412,162.647,163.89,28.433,260.047,491.647,231.633,463.247,694.847
"bas","axc",1,"197449","bas_axc_run1_197449","AX",2800,"A","X","white","center",1,2,611,1,1,0,0,NA,0,280459,285259,0,281070,115412,17,0,165.047,165.658,169.847,-115.412,28.433,260.047,491.647,231.633,463.247,694.847
"bas","axc",1,"197449","bas_axc_run1_197449","BY",1600,"H","U","white","center",1,1,402,1,1,0,0,NA,0,288859,293659,0,289261,115412,18,0,173.447,173.849,178.247,-115.412,28.433,260.047,491.647,231.633,463.247,694.847
"bas","axc",1,"197449","bas_axc_run1_197449","AX",2800,"A","X","white","center",1,2,0,0,NA,0,0,NA,0,296045,300845,0,0,115412,19,0,180.633,-115.412,185.433,-115.412,28.433,260.047,491.647,231.633,463.247,694.847
"bas","axc",1,"197449","bas_axc_run1_197449","Bng",4000,"M","4","white","center",1,NA,0,0,NA,0,1,NA,0,304445,309245,0,0,115412,20,0,189.033,-115.412,193.833,-115.412,28.433,260.047,491.647,231.633,463.247,694.847
"bas","axc",1,"197449","bas_axc_run1_197449","BY",1600,"N","U","white","center",1,1,515,1,1,386,1,1,1,314059,318859,319245,314574,115412,21,1,198.647,199.162,203.447,203.833,28.433,260.047,491.647,231.633,463.247,694.847
"bas","axc",1,"197449","bas_axc_run1_197449","BY",4000,"D","T","white","center",1,1,366,1,1,0,0,NA,0,321259,326059,0,321625,115412,22,0,205.847,206.213,210.647,-115.412,28.433,260.047,491.647,231.633,463.247,694.847
"bas","axc",1,"197449","bas_axc_run1_197449","AX",4000,"A","X","white","center",1,2,0,0,NA,0,0,NA,0,330859,335659,0,0,115412,23,0,215.447,-115.412,220.247,-115.412,28.433,260.047,491.647,231.633,463.247,694.847
"bas","axc",1,"197449","bas_axc_run1_197449","AX",1600,"A","X","white","center",1,2,0,0,NA,491,0,1,0,340445,345245,345736,0,115412,24,0,225.033,-115.412,229.833,230.324,28.433,260.047,491.647,231.633,463.247,694.847
"bas","axc",1,"197449","bas_axc_run1_197449","BX",1600,"M","X","white","center",1,1,0,0,NA,649,0,2,0,377645,382445,383094,0,115412,25,0,262.233,-115.412,267.033,267.682,28.433,260.047,491.647,231.633,463.247,694.847
"bas","axc",1,"197449","bas_axc_run1_197449","BX",4000,"C","X","white","center",1,1,876,1,1,0,0,NA,0,384845,389645,0,385721,115412,26,0,269.433,270.309,274.233,-115.412,28.433,260.047,491.647,231.633,463.247,694.847
"bas","axc",1,"197449","bas_axc_run1_197449","AX",2800,"A","X","white","center",1,2,0,0,NA,0,0,NA,0,394459,399259,0,0,115412,27,0,279.047,-115.412,283.847,-115.412,28.433,260.047,491.647,231.633,463.247,694.847
"bas","axc",1,"197449","bas_axc_run1_197449","AX",1600,"A","X","white","center",1,2,0,0,NA,849,1,2,0,402859,407659,408508,0,115412,28,0,287.447,-115.412,292.247,293.096,28.433,260.047,491.647,231.633,463.247,694.847
"bas","axc",1,"197449","bas_axc_run1_197449","AY",4000,"A","H","white","center",1,1,452,1,1,866,0,2,0,410059,414859,415725,410511,115412,29,0,294.647,295.099,299.447,300.313,28.433,260.047,491.647,231.633,463.247,694.847
"bas","axc",1,"197449","bas_axc_run1_197449","Ang",2800,"A","5","white","center",1,NA,527,1,1,0,1,NA,1,419645,424445,0,420172,115412,30,1,304.233,304.76,309.033,-115.412,28.433,260.047,491.647,231.633,463.247,694.847
"bas","axc",1,"197449","bas_axc_run1_197449","BY",4000,"F","C","white","center",1,1,0,0,NA,0,0,NA,0,428045,432859,0,0,115412,31,0,312.633,-115.412,317.447,-115.412,28.433,260.047,491.647,231.633,463.247,694.847
"bas","axc",1,"197449","bas_axc_run1_197449","AY",1600,"A","N","white","center",1,1,0,0,NA,0,0,NA,0,437659,442459,0,0,115412,32,0,322.247,-115.412,327.047,-115.412,28.433,260.047,491.647,231.633,463.247,694.847
"bas","axc",1,"197449","bas_axc_run1_197449","AX",4000,"A","X","white","center",1,2,0,0,NA,359,0,1,0,444859,449659,450018,0,115412,33,0,329.447,-115.412,334.247,334.606,28.433,260.047,491.647,231.633,463.247,694.847
"bas","axc",1,"197449","bas_axc_run1_197449","Bng",2800,"P","4","white","center",1,NA,0,0,NA,1036,0,1,0,454459,459245,460281,0,115412,34,0,339.047,-115.412,343.833,344.869,28.433,260.047,491.647,231.633,463.247,694.847
"bas","axc",1,"197449","bas_axc_run1_197449","Ang",2800,"A","3","white","center",1,NA,805,1,1,0,1,NA,1,462845,467645,0,463650,115412,35,1,347.433,348.238,352.233,-115.412,28.433,260.047,491.647,231.633,463.247,694.847
"bas","axc",1,"197449","bas_axc_run1_197449","AX",1600,"A","X","white","center",1,2,0,0,NA,0,0,NA,0,471245,476059,0,0,115412,36,0,355.833,-115.412,360.647,-115.412,28.433,260.047,491.647,231.633,463.247,694.847
"bas","axc",1,"197449","bas_axc_run1_197449","BY",2800,"T","N","white","center",1,1,0,0,NA,690,1,1,0,478459,483259,483949,0,115412,37,0,363.047,-115.412,367.847,368.537,28.433,260.047,491.647,231.633,463.247,694.847
"bas","axc",1,"197449","bas_axc_run1_197449","AX",4000,"A","X","white","center",1,2,0,0,NA,0,0,NA,0,486859,491659,0,0,115412,38,0,371.447,-115.412,376.247,-115.412,28.433,260.047,491.647,231.633,463.247,694.847
"bas","axc",1,"197449","bas_axc_run1_197449","AX",2800,"A","X","white","center",1,2,0,0,NA,0,0,NA,0,496459,501245,0,0,115412,39,0,381.047,-115.412,385.833,-115.412,28.433,260.047,491.647,231.633,463.247,694.847
"bas","axc",1,"197449","bas_axc_run1_197449","AX",4000,"A","X","white","center",1,2,0,0,NA,0,0,NA,0,504845,509645,0,0,115412,40,0,389.433,-115.412,394.233,-115.412,28.433,260.047,491.647,231.633,463.247,694.847
"bas","axc",1,"197449","bas_axc_run1_197449","AX",2800,"A","X","white","center",1,2,0,0,NA,0,0,NA,0,514459,519259,0,0,115412,41,0,399.047,-115.412,403.847,-115.412,28.433,260.047,491.647,231.633,463.247,694.847
"bas","axc",1,"197449","bas_axc_run1_197449","BY",4000,"M","F","white","center",1,1,0,0,NA,0,0,NA,0,522859,527659,0,0,115412,42,0,407.447,-115.412,412.247,-115.412,28.433,260.047,491.647,231.633,463.247,694.847
"bas","axc",1,"197449","bas_axc_run1_197449","BY",1600,"P","M","white","center",1,1,0,0,NA,460,1,1,0,532459,537259,537719,0,115412,43,0,417.047,-115.412,421.847,422.307,28.433,260.047,491.647,231.633,463.247,694.847
"bas","axc",1,"197449","bas_axc_run1_197449","Bng",1600,"U","7","white","center",1,NA,1442,1,1,0,1,NA,1,539645,544445,0,541087,115412,44,1,424.233,425.675,429.033,-115.412,28.433,260.047,491.647,231.633,463.247,694.847
"bas","axc",1,"197449","bas_axc_run1_197449","BY",1600,"C","M","white","center",1,1,0,0,NA,296,1,1,0,546845,551645,551941,0,115412,45,0,431.433,-115.412,436.233,436.529,28.433,260.047,491.647,231.633,463.247,694.847
"bas","axc",1,"197449","bas_axc_run1_197449","BY",2800,"C","D","white","center",1,1,0,0,NA,0,0,NA,0,554059,558859,0,0,115412,46,0,438.647,-115.412,443.447,-115.412,28.433,260.047,491.647,231.633,463.247,694.847
"bas","axc",1,"197449","bas_axc_run1_197449","BY",4000,"M","P","white","center",1,1,0,0,NA,0,0,NA,0,562459,567259,0,0,115412,47,0,447.047,-115.412,451.847,-115.412,28.433,260.047,491.647,231.633,463.247,694.847
"bas","axc",1,"197449","bas_axc_run1_197449","BY",1600,"D","N","white","center",1,1,672,1,1,997,1,1,1,572059,576859,577856,572731,115412,48,1,456.647,457.319,461.447,462.444,28.433,260.047,491.647,231.633,463.247,694.847
"bas","axc",1,"197449","bas_axc_run1_197449","BY",4000,"N","P","white","center",1,1,0,0,NA,761,1,1,0,609259,614059,614820,0,115412,49,0,493.847,-115.412,498.647,499.408,28.433,260.047,491.647,231.633,463.247,694.847
"bas","axc",1,"197449","bas_axc_run1_197449","AX",2800,"A","X","white","center",1,2,1099,0,2,0,0,NA,0,618859,623645,0,619958,115412,50,0,503.447,504.546,508.233,-115.412,28.433,260.047,491.647,231.633,463.247,694.847
"bas","axc",1,"197449","bas_axc_run1_197449","BY",1600,"F","M","white","center",1,1,669,1,1,834,1,1,1,627245,632045,632879,627914,115412,51,1,511.833,512.502,516.633,517.467,28.433,260.047,491.647,231.633,463.247,694.847
"bas","axc",1,"197449","bas_axc_run1_197449","AX",1600,"A","X","white","center",1,2,731,1,1,0,0,NA,0,634459,639259,0,635190,115412,52,0,519.047,519.778,523.847,-115.412,28.433,260.047,491.647,231.633,463.247,694.847
"bas","axc",1,"197449","bas_axc_run1_197449","BY",2800,"M","F","white","center",1,1,0,0,NA,0,0,NA,0,641659,646459,0,0,115412,53,0,526.247,-115.412,531.047,-115.412,28.433,260.047,491.647,231.633,463.247,694.847
"bas","axc",1,"197449","bas_axc_run1_197449","BY",1600,"D","T","white","center",1,1,0,0,NA,0,0,NA,0,650059,654859,0,0,115412,54,0,534.647,-115.412,539.447,-115.412,28.433,260.047,491.647,231.633,463.247,694.847
"bas","axc",1,"197449","bas_axc_run1_197449","BY",2800,"U","P","white","center",1,1,0,0,NA,0,0,NA,0,657259,662045,0,0,115412,55,0,541.847,-115.412,546.633,-115.412,28.433,260.047,491.647,231.633,463.247,694.847
"bas","axc",1,"197449","bas_axc_run1_197449","Ang",4000,"A","9","white","center",1,NA,428,1,1,0,1,NA,1,665645,670445,0,666073,115412,56,1,550.233,550.661,555.033,-115.412,28.433,260.047,491.647,231.633,463.247,694.847
"bas","axc",1,"197449","bas_axc_run1_197449","AX",4000,"A","X","white","center",1,2,0,0,NA,0,0,NA,0,675259,680059,0,0,115412,57,0,559.847,-115.412,564.647,-115.412,28.433,260.047,491.647,231.633,463.247,694.847
"bas","axc",1,"197449","bas_axc_run1_197449","AX",2800,"A","X","white","center",1,2,0,0,NA,0,0,NA,0,684859,689659,0,0,115412,58,0,569.447,-115.412,574.247,-115.412,28.433,260.047,491.647,231.633,463.247,694.847
"bas","axc",1,"197449","bas_axc_run1_197449","Bng",4000,"C","6","white","center",1,NA,0,0,NA,0,1,NA,0,693259,698059,0,0,115412,59,0,577.847,-115.412,582.647,-115.412,28.433,260.047,491.647,231.633,463.247,694.847
"bas","axc",1,"197449","bas_axc_run1_197449","AY",1600,"A","D","white","center",1,1,663,1,1,420,1,1,1,702845,707645,708065,703508,115412,60,1,587.433,588.096,592.233,592.653,28.433,260.047,491.647,231.633,463.247,694.847
"bas","axc",1,"197449","bas_axc_run1_197449","Ang",2800,"A","7","white","center",1,NA,1007,1,1,0,1,NA,1,710045,714845,0,711052,115412,61,1,594.633,595.64,599.433,-115.412,28.433,260.047,491.647,231.633,463.247,694.847
"bas","axc",1,"197449","bas_axc_run1_197449","AY",1600,"A","T","white","center",1,1,0,0,NA,0,0,NA,0,718459,723259,0,0,115412,62,0,603.047,-115.412,607.847,-115.412,28.433,260.047,491.647,231.633,463.247,694.847
"bas","axc",1,"197449","bas_axc_run1_197449","BX",2800,"F","X","white","center",1,1,0,0,NA,0,0,NA,0,725659,730459,0,0,115412,63,0,610.247,-115.412,615.047,-115.412,28.433,260.047,491.647,231.633,463.247,694.847
"bas","axc",1,"197449","bas_axc_run1_197449","BY",4000,"M","P","white","center",1,1,0,0,NA,499,1,1,0,734059,738859,739358,0,115412,64,0,618.647,-115.412,623.447,623.946,28.433,260.047,491.647,231.633,463.247,694.847
"bas","axc",1,"197449","bas_axc_run1_197449","AX",1600,"A","X","white","center",1,2,780,1,1,0,0,NA,0,743645,748445,0,744425,115412,65,0,628.233,629.013,633.033,-115.412,28.433,260.047,491.647,231.633,463.247,694.847
"bas","axc",1,"197449","bas_axc_run1_197449","BY",4000,"H","T","white","center",1,1,604,1,1,0,0,NA,0,750845,755645,0,751449,115412,66,0,635.433,636.037,640.233,-115.412,28.433,260.047,491.647,231.633,463.247,694.847
"bas","axc",1,"197449","bas_axc_run1_197449","AX",4000,"A","X","white","center",1,2,0,0,NA,687,0,1,0,760459,765259,765946,0,115412,67,0,645.047,-115.412,649.847,650.534,28.433,260.047,491.647,231.633,463.247,694.847
"bas","axc",1,"197449","bas_axc_run1_197449","AX",2800,"A","X","white","center",1,2,519,1,1,547,1,2,1,770059,774859,775406,770578,115412,68,1,654.647,655.166,659.447,659.994,28.433,260.047,491.647,231.633,463.247,694.847
"bas","axc",1,"197449","bas_axc_run1_197449","BY",1600,"H","U","white","center",1,1,0,0,NA,0,0,NA,0,778459,783245,0,0,115412,69,0,663.047,-115.412,667.833,-115.412,28.433,260.047,491.647,231.633,463.247,694.847
"bas","axc",1,"197449","bas_axc_run1_197449","AX",1600,"A","X","white","center",1,2,0,0,NA,0,0,NA,0,785645,790445,0,0,115412,70,0,670.233,-115.412,675.033,-115.412,28.433,260.047,491.647,231.633,463.247,694.847
"bas","axc",1,"197449","bas_axc_run1_197449","Bng",4000,"P","9","white","center",1,NA,0,0,NA,0,1,NA,0,792845,797659,0,0,115412,71,0,677.433,-115.412,682.247,-115.412,28.433,260.047,491.647,231.633,463.247,694.847
"bas","axc",1,"197449","bas_axc_run1_197449","BX",2800,"F","X","white","center",1,1,511,1,1,0,0,NA,0,802459,807259,0,802970,115412,72,0,687.047,687.558,691.847,-115.412,28.433,260.047,491.647,231.633,463.247,694.847
"bas","axc",2,"197449","bas_axc_run2_197449","AX",2800,"A","X","white","center",1,2,435,1,1,659,1,2,1,72437,77237,77896,72872,41817,1,1,30.62,31.055,35.42,36.079,28.42,260.007,491.62,231.633,463.22,694.833
"bas","axc",2,"197449","bas_axc_run2_197449","BY",2800,"M","N","white","center",1,1,810,1,1,1059,1,1,1,80837,85637,86696,81647,41817,2,1,39.02,39.83,43.82,44.879,28.42,260.007,491.62,231.633,463.22,694.833
"bas","axc",2,"197449","bas_axc_run2_197449","AY",2800,"A","P","white","center",1,1,362,1,1,699,1,1,1,89237,94024,94723,89599,41817,3,1,47.42,47.782,52.207,52.906,28.42,260.007,491.62,231.633,463.22,694.833
"bas","axc",2,"197449","bas_axc_run2_197449","Ang",2800,"A","2","white","center",1,NA,411,1,1,0,1,NA,1,97624,102424,0,98035,41817,4,1,55.807,56.218,60.607,-41.817,28.42,260.007,491.62,231.633,463.22,694.833
"bas","axc",2,"197449","bas_axc_run2_197449","AX",4000,"A","X","white","center",1,2,383,1,1,777,0,1,0,106024,110837,111614,106407,41817,5,0,64.207,64.59,69.02,69.797,28.42,260.007,491.62,231.633,463.22,694.833
"bas","axc",2,"197449","bas_axc_run2_197449","Bng",4000,"F","6","white","center",1,NA,0,0,NA,0,1,NA,0,115637,120437,0,0,41817,6,0,73.82,-41.817,78.62,-41.817,28.42,260.007,491.62,231.633,463.22,694.833
"bas","axc",2,"197449","bas_axc_run2_197449","BY",1600,"T","H","white","center",1,1,725,1,1,1037,1,1,1,125237,130037,131074,125962,41817,7,1,83.42,84.145,88.22,89.257,28.42,260.007,491.62,231.633,463.22,694.833
"bas","axc",2,"197449","bas_axc_run2_197449","BY",1600,"N","D","white","center",1,1,0,0,NA,406,1,1,0,132437,137224,137630,0,41817,8,0,90.62,-41.817,95.407,95.813,28.42,260.007,491.62,231.633,463.22,694.833
"bas","axc",2,"197449","bas_axc_run2_197449","AX",4000,"A","X","white","center",1,2,0,0,NA,0,0,NA,0,139624,144424,0,0,41817,9,0,97.807,-41.817,102.607,-41.817,28.42,260.007,491.62,231.633,463.22,694.833
"bas","axc",2,"197449","bas_axc_run2_197449","BY",1600,"F","H","white","center",1,1,0,0,NA,0,0,NA,0,149237,154037,0,0,41817,10,0,107.42,-41.817,112.22,-41.817,28.42,260.007,491.62,231.633,463.22,694.833
"bas","axc",2,"197449","bas_axc_run2_197449","Bng",4000,"P","2","white","center",1,NA,0,0,NA,0,1,NA,0,156437,161237,0,0,41817,11,0,114.62,-41.817,119.42,-41.817,28.42,260.007,491.62,231.633,463.22,694.833
"bas","axc",2,"197449","bas_axc_run2_197449","BX",1600,"T","X","white","center",1,1,512,1,1,1157,1,1,1,166037,170837,171994,166549,41817,12,1,124.22,124.732,129.02,130.177,28.42,260.007,491.62,231.633,463.22,694.833
"bas","axc",2,"197449","bas_axc_run2_197449","BY",2800,"D","C","white","center",1,1,742,1,1,434,1,1,1,173237,178024,178458,173979,41817,13,1,131.42,132.162,136.207,136.641,28.42,260.007,491.62,231.633,463.22,694.833
"bas","axc",2,"197449","bas_axc_run2_197449","BY",1600,"P","C","white","center",1,1,471,1,1,791,1,1,1,181624,186424,187215,182095,41817,14,1,139.807,140.278,144.607,145.398,28.42,260.007,491.62,231.633,463.22,694.833
"bas","axc",2,"197449","bas_axc_run2_197449","AY",2800,"A","C","white","center",1,1,389,1,1,636,1,1,1,188824,193637,194273,189213,41817,15,1,147.007,147.396,151.82,152.456,28.42,260.007,491.62,231.633,463.22,694.833
"bas","axc",2,"197449","bas_axc_run2_197449","BY",4000,"U","F","white","center",1,1,0,0,NA,364,1,1,0,197237,202037,202401,0,41817,16,0,155.42,-41.817,160.22,160.584,28.42,260.007,491.62,231.633,463.22,694.833
"bas","axc",2,"197449","bas_axc_run2_197449","AX",2800,"A","X","white","center",1,2,676,1,1,1269,0,1,0,206837,211637,212906,207513,41817,17,0,165.02,165.696,169.82,171.089,28.42,260.007,491.62,231.633,463.22,694.833
"bas","axc",2,"197449","bas_axc_run2_197449","AX",4000,"A","X","white","center",1,2,410,1,1,510,1,2,1,215237,220024,220534,215647,41817,18,1,173.42,173.83,178.207,178.717,28.42,260.007,491.62,231.633,463.22,694.833
"bas","axc",2,"197449","bas_axc_run2_197449","AX",2800,"A","X","white","center",1,2,0,0,NA,672,0,1,0,224824,229637,230309,0,41817,19,0,183.007,-41.817,187.82,188.492,28.42,260.007,491.62,231.633,463.22,694.833
"bas","axc",2,"197449","bas_axc_run2_197449","AX",1600,"A","X","white","center",1,2,0,0,NA,0,0,NA,0,233237,238037,0,0,41817,20,0,191.42,-41.817,196.22,-41.817,28.42,260.007,491.62,231.633,463.22,694.833
"bas","axc",2,"197449","bas_axc_run2_197449","BY",4000,"D","U","white","center",1,1,0,0,NA,380,1,1,0,240437,245237,245617,0,41817,21,0,198.62,-41.817,203.42,203.8,28.42,260.007,491.62,231.633,463.22,694.833
"bas","axc",2,"197449","bas_axc_run2_197449","Ang",1600,"A","8","white","center",1,NA,799,1,1,0,1,NA,1,250037,254837,0,250836,41817,22,1,208.22,209.019,213.02,-41.817,28.42,260.007,491.62,231.633,463.22,694.833
"bas","axc",2,"197449","bas_axc_run2_197449","BX",4000,"N","X","white","center",1,1,0,0,NA,641,1,1,0,257224,262024,262665,0,41817,23,0,215.407,-41.817,220.207,220.848,28.42,260.007,491.62,231.633,463.22,694.833
"bas","axc",2,"197449","bas_axc_run2_197449","AX",1600,"A","X","white","center",1,2,508,1,1,577,1,2,1,266824,271637,272214,267332,41817,24,1,225.007,225.515,229.82,230.397,28.42,260.007,491.62,231.633,463.22,694.833
"bas","axc",2,"197449","bas_axc_run2_197449","AY",4000,"A","M","white","center",1,1,400,1,1,0,0,NA,0,304024,308824,0,304424,41817,25,0,262.207,262.607,267.007,-41.817,28.42,260.007,491.62,231.633,463.22,694.833
"bas","axc",2,"197449","bas_axc_run2_197449","BY",4000,"C","N","white","center",1,1,0,0,NA,469,1,1,0,313637,318437,318906,0,41817,26,0,271.82,-41.817,276.62,277.089,28.42,260.007,491.62,231.633,463.22,694.833
"bas","axc",2,"197449","bas_axc_run2_197449","AY",2800,"A","F","white","center",1,1,638,1,1,381,1,1,1,323237,328037,328418,323875,41817,27,1,281.42,282.058,286.22,286.601,28.42,260.007,491.62,231.633,463.22,694.833
"bas","axc",2,"197449","bas_axc_run2_197449","BY",2800,"H","C","white","center",1,1,618,1,1,0,0,NA,0,331637,336437,0,332255,41817,28,0,289.82,290.438,294.62,-41.817,28.42,260.007,491.62,231.633,463.22,694.833
"bas","axc",2,"197449","bas_axc_run2_197449","BX",2800,"D","X","white","center",1,1,0,0,NA,0,0,NA,0,340024,344824,0,0,41817,29,0,298.207,-41.817,303.007,-41.817,28.42,260.007,491.62,231.633,463.22,694.833
"bas","axc",2,"197449","bas_axc_run2_197449","AX",4000,"A","X","white","center",1,2,226,1,1,712,1,2,1,348424,353237,353949,348650,41817,30,1,306.607,306.833,311.42,312.132,28.42,260.007,491.62,231.633,463.22,694.833
"bas","axc",2,"197449","bas_axc_run2_197449","AX",2800,"A","X","white","center",1,2,317,1,1,375,1,2,1,358037,362837,363212,358354,41817,31,1,316.22,316.537,321.02,321.395,28.42,260.007,491.62,231.633,463.22,694.833
"bas","axc",2,"197449","bas_axc_run2_197449","AX",1600,"A","X","white","center",1,2,1090,1,1,1264,1,2,1,366437,371237,372501,367527,41817,32,1,324.62,325.71,329.42,330.684,28.42,260.007,491.62,231.633,463.22,694.833
"bas","axc",2,"197449","bas_axc_run2_197449","AX",1600,"A","X","white","center",1,2,512,1,1,0,0,NA,0,373637,378424,0,374149,41817,33,0,331.82,332.332,336.607,-41.817,28.42,260.007,491.62,231.633,463.22,694.833
"bas","axc",2,"197449","bas_axc_run2_197449","BY",4000,"P","T","white","center",1,1,0,0,NA,544,1,1,0,380824,385624,386168,0,41817,34,0,339.007,-41.817,343.807,344.351,28.42,260.007,491.62,231.633,463.22,694.833
"bas","axc",2,"197449","bas_axc_run2_197449","BY",1600,"U","T","white","center",1,1,0,0,NA,0,0,NA,0,390424,395237,0,0,41817,35,0,348.607,-41.817,353.42,-41.817,28.42,260.007,491.62,231.633,463.22,694.833
"bas","axc",2,"197449","bas_axc_run2_197449","Bng",1600,"F","3","white","center",1,NA,0,0,NA,0,1,NA,0,397637,402437,0,0,41817,36,0,355.82,-41.817,360.62,-41.817,28.42,260.007,491.62,231.633,463.22,694.833
"bas","axc",2,"197449","bas_axc_run2_197449","AX",2800,"A","X","white","center",1,2,0,0,NA,526,1,2,0,404837,409637,410163,0,41817,37,0,363.02,-41.817,367.82,368.346,28.42,260.007,491.62,231.633,463.22,694.833
"bas","axc",2,"197449","bas_axc_run2_197449","Ang",4000,"A","6","white","center",1,NA,818,1,1,0,1,NA,1,413237,418024,0,414055,41817,38,1,371.42,372.238,376.207,-41.817,28.42,260.007,491.62,231.633,463.22,694.833
"bas","axc",2,"197449","bas_axc_run2_197449","Ang",2800,"A","4","white","center",1,NA,527,1,1,0,1,NA,1,422824,427624,0,423351,41817,39,1,381.007,381.534,385.807,-41.817,28.42,260.007,491.62,231.633,463.22,694.833
"bas","axc",2,"197449","bas_axc_run2_197449","BY",1600,"M","U","white","center",1,1,0,0,NA,0,0,NA,0,431224,436037,0,0,41817,40,0,389.407,-41.817,394.22,-41.817,28.42,260.007,491.62,231.633,463.22,694.833
"bas","axc",2,"197449","bas_axc_run2_197449","BY",1600,"H","F","white","center",1,1,0,0,NA,0,0,NA,0,438437,443237,0,0,41817,41,0,396.62,-41.817,401.42,-41.817,28.42,260.007,491.62,231.633,463.22,694.833
"bas","axc",2,"197449","bas_axc_run2_197449","BY",4000,"T","P","white","center",1,1,0,0,NA,0,0,NA,0,445637,450437,0,0,41817,42,0,403.82,-41.817,408.62,-41.817,28.42,260.007,491.62,231.633,463.22,694.833
"bas","axc",2,"197449","bas_axc_run2_197449","AX",1600,"A","X","white","center",1,2,405,1,1,0,0,NA,0,455237,460024,0,455642,41817,43,0,413.42,413.825,418.207,-41.817,28.42,260.007,491.62,231.633,463.22,694.833
"bas","axc",2,"197449","bas_axc_run2_197449","AX",4000,"A","X","white","center",1,2,0,0,NA,0,0,NA,0,462424,467224,0,0,41817,44,0,420.607,-41.817,425.407,-41.817,28.42,260.007,491.62,231.633,463.22,694.833
"bas","axc",2,"197449","bas_axc_run2_197449","AX",2800,"A","X","white","center",1,2,0,0,NA,0,0,NA,0,472024,476837,0,0,41817,45,0,430.207,-41.817,435.02,-41.817,28.42,260.007,491.62,231.633,463.22,694.833
"bas","axc",2,"197449","bas_axc_run2_197449","BY",2800,"N","H","white","center",1,1,0,0,NA,371,1,1,0,480437,485237,485608,0,41817,46,0,438.62,-41.817,443.42,443.791,28.42,260.007,491.62,231.633,463.22,694.833
"bas","axc",2,"197449","bas_axc_run2_197449","Bng",4000,"T","8","white","center",1,NA,445,1,1,348,0,1,0,488837,493637,493985,489282,41817,47,0,447.02,447.465,451.82,452.168,28.42,260.007,491.62,231.633,463.22,694.833
"bas","axc",2,"197449","bas_axc_run2_197449","BX",1600,"H","X","white","center",1,1,424,1,1,1196,0,2,0,498437,503224,504420,498861,41817,48,0,456.62,457.044,461.407,462.603,28.42,260.007,491.62,231.633,463.22,694.833
"bas","axc",2,"197449","bas_axc_run2_197449","AX",4000,"A","X","white","center",1,2,0,0,NA,0,0,NA,0,535637,540424,0,0,41817,49,0,493.82,-41.817,498.607,-41.817,28.42,260.007,491.62,231.633,463.22,694.833
"bas","axc",2,"197449","bas_axc_run2_197449","BY",2800,"F","D","white","center",1,1,530,1,1,1352,1,1,1,545224,550024,551376,545754,41817,50,1,503.407,503.937,508.207,509.559,28.42,260.007,491.62,231.633,463.22,694.833
"bas","axc",2,"197449","bas_axc_run2_197449","BX",4000,"T","X","white","center",1,1,398,1,1,1148,1,1,1,553637,558437,559585,554035,41817,51,1,511.82,512.218,516.62,517.768,28.42,260.007,491.62,231.633,463.22,694.833
"bas","axc",2,"197449","bas_axc_run2_197449","AY",2800,"A","U","white","center",1,1,0,0,NA,0,0,NA,0,563237,568037,0,0,41817,52,0,521.42,-41.817,526.22,-41.817,28.42,260.007,491.62,231.633,463.22,694.833
"bas","axc",2,"197449","bas_axc_run2_197449","Bng",4000,"U","2","white","center",1,NA,0,0,NA,0,1,NA,0,571637,576437,0,0,41817,53,0,529.82,-41.817,534.62,-41.817,28.42,260.007,491.62,231.633,463.22,694.833
"bas","axc",2,"197449","bas_axc_run2_197449","BX",1600,"D","X","white","center",1,1,734,1,1,905,1,1,1,581224,586024,586929,581958,41817,54,1,539.407,540.141,544.207,545.112,28.42,260.007,491.62,231.633,463.22,694.833
"bas","axc",2,"197449","bas_axc_run2_197449","Ang",1600,"A","8","white","center",1,NA,0,0,NA,0,1,NA,0,588424,593224,0,0,41817,55,0,546.607,-41.817,551.407,-41.817,28.42,260.007,491.62,231.633,463.22,694.833
"bas","axc",2,"197449","bas_axc_run2_197449","AY",1600,"A","M","white","center",1,1,0,0,NA,0,0,NA,0,595637,600437,0,0,41817,56,0,553.82,-41.817,558.62,-41.817,28.42,260.007,491.62,231.633,463.22,694.833
"bas","axc",2,"197449","bas_axc_run2_197449","BY",1600,"C","F","white","center",1,1,0,0,NA,876,1,1,0,602837,607637,608513,0,41817,57,0,561.02,-41.817,565.82,566.696,28.42,260.007,491.62,231.633,463.22,694.833
"bas","axc",2,"197449","bas_axc_run2_197449","AX",4000,"A","X","white","center",1,2,0,0,NA,0,0,NA,0,610037,614837,0,0,41817,58,0,568.22,-41.817,573.02,-41.817,28.42,260.007,491.62,231.633,463.22,694.833
"bas","axc",2,"197449","bas_axc_run2_197449","Bng",2800,"U","6","white","center",1,NA,0,0,NA,0,1,NA,0,619637,624424,0,0,41817,59,0,577.82,-41.817,582.607,-41.817,28.42,260.007,491.62,231.633,463.22,694.833
"bas","axc",2,"197449","bas_axc_run2_197449","BY",2800,"T","H","white","center",1,1,538,1,1,0,0,NA,0,628024,632824,0,628562,41817,60,0,586.207,586.745,591.007,-41.817,28.42,260.007,491.62,231.633,463.22,694.833
"bas","axc",2,"197449","bas_axc_run2_197449","BY",4000,"D","U","white","center",1,1,0,0,NA,0,0,NA,0,636437,641237,0,0,41817,61,0,594.62,-41.817,599.42,-41.817,28.42,260.007,491.62,231.633,463.22,694.833
"bas","axc",2,"197449","bas_axc_run2_197449","AX",4000,"A","X","white","center",1,2,0,0,NA,0,0,NA,0,646037,650837,0,0,41817,62,0,604.22,-41.817,609.02,-41.817,28.42,260.007,491.62,231.633,463.22,694.833
"bas","axc",2,"197449","bas_axc_run2_197449","BY",2800,"U","T","white","center",1,1,777,1,1,526,1,1,1,655637,660437,660963,656414,41817,63,1,613.82,614.597,618.62,619.146,28.42,260.007,491.62,231.633,463.22,694.833
"bas","axc",2,"197449","bas_axc_run2_197449","AX",1600,"A","X","white","center",1,2,404,1,1,478,1,2,1,664024,668824,669302,664428,41817,64,1,622.207,622.611,627.007,627.485,28.42,260.007,491.62,231.633,463.22,694.833
"bas","axc",2,"197449","bas_axc_run2_197449","AX",1600,"A","X","white","center",1,2,0,0,NA,0,0,NA,0,671224,676037,0,0,41817,65,0,629.407,-41.817,634.22,-41.817,28.42,260.007,491.62,231.633,463.22,694.833
"bas","axc",2,"197449","bas_axc_run2_197449","Ang",4000,"A","2","white","center",1,NA,0,0,NA,0,1,NA,0,678437,683237,0,0,41817,66,0,636.62,-41.817,641.42,-41.817,28.42,260.007,491.62,231.633,463.22,694.833
"bas","axc",2,"197449","bas_axc_run2_197449","BY",4000,"D","C","white","center",1,1,515,1,1,0,0,NA,0,688037,692837,0,688552,41817,67,0,646.22,646.735,651.02,-41.817,28.42,260.007,491.62,231.633,463.22,694.833
"bas","axc",2,"197449","bas_axc_run2_197449","AX",2800,"A","X","white","center",1,2,752,1,1,0,0,NA,0,697637,702424,0,698389,41817,68,0,655.82,656.572,660.607,-41.817,28.42,260.007,491.62,231.633,463.22,694.833
"bas","axc",2,"197449","bas_axc_run2_197449","BY",2800,"T","P","white","center",1,1,0,0,NA,0,0,NA,0,706024,710824,0,0,41817,69,0,664.207,-41.817,669.007,-41.817,28.42,260.007,491.62,231.633,463.22,694.833
"bas","axc",2,"197449","bas_axc_run2_197449","AX",1600,"A","X","white","center",1,2,0,0,NA,0,0,NA,0,714424,719237,0,0,41817,70,0,672.607,-41.817,677.42,-41.817,28.42,260.007,491.62,231.633,463.22,694.833
"bas","axc",2,"197449","bas_axc_run2_197449","AX",2800,"A","X","white","center",1,2,506,1,1,433,1,2,1,721637,726437,726870,722143,41817,71,1,679.82,680.326,684.62,685.053,28.42,260.007,491.62,231.633,463.22,694.833
"bas","axc",2,"197449","bas_axc_run2_197449","BY",1600,"P","T","white","center",1,1,0,0,NA,0,0,NA,0,730037,734837,0,0,41817,72,0,688.22,-41.817,693.02,-41.817,28.42,260.007,491.62,231.633,463.22,694.833
"pro","axc",1,"197449","pro_axc_run1_197449","Bng",4000,"F","3","white","center",1,NA,0,0,NA,1032,0,1,0,190216,195032,196064,0,159597,1,0,30.619,-159.597,35.435,36.467,28.435,260.035,491.635,231.635,463.235,694.835
"pro","axc",1,"197449","pro_axc_run1_197449","BY",4000,"D","U","white","center",1,1,474,1,1,375,1,1,1,199816,204632,205007,200290,159597,2,1,40.219,40.693,45.035,45.41,28.435,260.035,491.635,231.635,463.235,694.835
"pro","axc",1,"197449","pro_axc_run1_197449","BY",4000,"C","F","white","center",1,1,377,1,1,293,1,1,1,209416,214232,214525,209793,159597,3,1,49.819,50.196,54.635,54.928,28.435,260.035,491.635,231.635,463.235,694.835
"pro","axc",1,"197449","pro_axc_run1_197449","Ang",2800,"A","6","white","center",1,NA,494,1,1,0,1,NA,1,219016,223832,0,219510,159597,4,1,59.419,59.913,64.235,-159.597,28.435,260.035,491.635,231.635,463.235,694.835
"pro","axc",1,"197449","pro_axc_run1_197449","AX",1600,"A","X","white","center",1,2,527,1,1,203,1,2,1,227416,232232,232435,227943,159597,5,1,67.819,68.346,72.635,72.838,28.435,260.035,491.635,231.635,463.235,694.835
"pro","axc",1,"197449","pro_axc_run1_197449","AY",1600,"A","P","white","center",1,1,369,1,1,446,0,2,0,234616,239432,239878,234985,159597,6,0,75.019,75.388,79.835,80.281,28.435,260.035,491.635,231.635,463.235,694.835
"pro","axc",1,"197449","pro_axc_run1_197449","BY",2800,"M","U","white","center",1,1,616,1,1,479,1,1,1,241832,246632,247111,242448,159597,7,1,82.235,82.851,87.035,87.514,28.435,260.035,491.635,231.635,463.235,694.835
"pro","axc",1,"197449","pro_axc_run1_197449","Ang",2800,"A","4","white","center",1,NA,334,1,1,0,1,NA,1,250232,255032,0,250566,159597,8,1,90.635,90.969,95.435,-159.597,28.435,260.035,491.635,231.635,463.235,694.835
"pro","axc",1,"197449","pro_axc_run1_197449","AY",1600,"A","F","white","center",1,1,0,0,NA,521,1,1,0,258632,263416,263937,0,159597,9,0,99.035,-159.597,103.819,104.34,28.435,260.035,491.635,231.635,463.235,694.835
"pro","axc",1,"197449","pro_axc_run1_197449","BY",1600,"U","F","white","center",1,1,830,1,1,502,1,1,1,265832,270616,271118,266662,159597,10,1,106.235,107.065,111.019,111.521,28.435,260.035,491.635,231.635,463.235,694.835
"pro","axc",1,"197449","pro_axc_run1_197449","BY",4000,"P","C","white","center",1,1,419,1,1,409,1,1,1,273032,277832,278241,273451,159597,11,1,113.435,113.854,118.235,118.644,28.435,260.035,491.635,231.635,463.235,694.835
"pro","axc",1,"197449","pro_axc_run1_197449","BY",2800,"F","D","white","center",1,1,341,1,1,443,1,1,1,282632,287416,287859,282973,159597,12,1,123.035,123.376,127.819,128.262,28.435,260.035,491.635,231.635,463.235,694.835
"pro","axc",1,"197449","pro_axc_run1_197449","AX",1600,"A","X","white","center",1,2,223,1,1,309,1,2,1,291032,295832,296141,291255,159597,13,1,131.435,131.658,136.235,136.544,28.435,260.035,491.635,231.635,463.235,694.835
"pro","axc",1,"197449","pro_axc_run1_197449","AX",1600,"A","X","white","center",1,2,424,1,1,162,1,2,1,298216,303032,303194,298640,159597,14,1,138.619,139.043,143.435,143.597,28.435,260.035,491.635,231.635,463.235,694.835
"pro","axc",1,"197449","pro_axc_run1_197449","AX",2800,"A","X","white","center",1,2,0,0,NA,439,0,1,0,305416,310232,310671,0,159597,15,0,145.819,-159.597,150.635,151.074,28.435,260.035,491.635,231.635,463.235,694.835
"pro","axc",1,"197449","pro_axc_run1_197449","BX",4000,"T","X","white","center",1,1,426,1,1,551,0,2,0,313816,318632,319183,314242,159597,16,0,154.219,154.645,159.035,159.586,28.435,260.035,491.635,231.635,463.235,694.835
"pro","axc",1,"197449","pro_axc_run1_197449","AX",2800,"A","X","white","center",1,2,349,1,1,0,0,NA,0,323416,328232,0,323765,159597,17,0,163.819,164.168,168.635,-159.597,28.435,260.035,491.635,231.635,463.235,694.835
"pro","axc",1,"197449","pro_axc_run1_197449","BX",2800,"N","X","white","center",1,1,372,1,1,481,0,2,0,331816,336632,337113,332188,159597,18,0,172.219,172.591,177.035,177.516,28.435,260.035,491.635,231.635,463.235,694.835
"pro","axc",1,"197449","pro_axc_run1_197449","BY",4000,"H","F","white","center",1,1,0,0,NA,287,1,1,0,340232,345032,345319,0,159597,19,0,180.635,-159.597,185.435,185.722,28.435,260.035,491.635,231.635,463.235,694.835
"pro","axc",1,"197449","pro_axc_run1_197449","AX",4000,"A","X","white","center",1,2,0,0,NA,0,0,NA,0,349816,354632,0,0,159597,20,0,190.219,-159.597,195.035,-159.597,28.435,260.035,491.635,231.635,463.235,694.835
"pro","axc",1,"197449","pro_axc_run1_197449","BY",1600,"T","H","white","center",1,1,0,0,NA,443,1,1,0,359416,364232,364675,0,159597,21,0,199.819,-159.597,204.635,205.078,28.435,260.035,491.635,231.635,463.235,694.835
"pro","axc",1,"197449","pro_axc_run1_197449","AX",4000,"A","X","white","center",1,2,0,0,NA,284,0,1,0,366632,371432,371716,0,159597,22,0,207.035,-159.597,211.835,212.119,28.435,260.035,491.635,231.635,463.235,694.835
"pro","axc",1,"197449","pro_axc_run1_197449","AX",1600,"A","X","white","center",1,2,0,0,NA,0,0,NA,0,376216,381032,0,0,159597,23,0,216.619,-159.597,221.435,-159.597,28.435,260.035,491.635,231.635,463.235,694.835
"pro","axc",1,"197449","pro_axc_run1_197449","Bng",2800,"U","2","white","center",1,NA,490,1,1,0,1,NA,1,383432,388232,0,383922,159597,24,1,223.835,224.325,228.635,-159.597,28.435,260.035,491.635,231.635,463.235,694.835
"pro","axc",1,"197449","pro_axc_run1_197449","AX",4000,"A","X","white","center",1,2,0,0,NA,0,0,NA,0,421816,426632,0,0,159597,25,0,262.219,-159.597,267.035,-159.597,28.435,260.035,491.635,231.635,463.235,694.835
"pro","axc",1,"197449","pro_axc_run1_197449","AX",4000,"A","X","white","center",1,2,299,1,1,0,0,NA,0,431416,436232,0,431715,159597,26,0,271.819,272.118,276.635,-159.597,28.435,260.035,491.635,231.635,463.235,694.835
"pro","axc",1,"197449","pro_axc_run1_197449","AX",1600,"A","X","white","center",1,2,0,0,NA,501,0,1,0,441016,445832,446333,0,159597,27,0,281.419,-159.597,286.235,286.736,28.435,260.035,491.635,231.635,463.235,694.835
"pro","axc",1,"197449","pro_axc_run1_197449","BY",2800,"D","C","white","center",1,1,578,0,2,335,1,1,0,448216,453032,453367,448794,159597,28,0,288.619,289.197,293.435,293.77,28.435,260.035,491.635,231.635,463.235,694.835
"pro","axc",1,"197449","pro_axc_run1_197449","AX",4000,"A","X","white","center",1,2,662,1,1,288,1,2,1,456616,461432,461720,457278,159597,29,1,297.019,297.681,301.835,302.123,28.435,260.035,491.635,231.635,463.235,694.835
"pro","axc",1,"197449","pro_axc_run1_197449","AY",4000,"A","C","white","center",1,1,0,0,NA,297,1,1,0,466216,471032,471329,0,159597,30,0,306.619,-159.597,311.435,311.732,28.435,260.035,491.635,231.635,463.235,694.835
"pro","axc",1,"197449","pro_axc_run1_197449","AX",1600,"A","X","white","center",1,2,0,0,NA,0,0,NA,0,475815,480632,0,0,159597,31,0,316.218,-159.597,321.035,-159.597,28.435,260.035,491.635,231.635,463.235,694.835
"pro","axc",1,"197449","pro_axc_run1_197449","AX",1600,"A","X","white","center",1,2,0,0,NA,0,0,NA,0,483015,487832,0,0,159597,32,0,323.418,-159.597,328.235,-159.597,28.435,260.035,491.635,231.635,463.235,694.835
"pro","axc",1,"197449","pro_axc_run1_197449","BY",1600,"H","C","white","center",1,1,0,0,NA,0,0,NA,0,490232,495032,0,0,159597,33,0,330.635,-159.597,335.435,-159.597,28.435,260.035,491.635,231.635,463.235,694.835
"pro","axc",1,"197449","pro_axc_run1_197449","BY",2800,"M","N","white","center",1,1,429,1,1,1133,0,2,0,497432,502215,503348,497861,159597,34,0,337.835,338.264,342.618,343.751,28.435,260.035,491.635,231.635,463.235,694.835
"pro","axc",1,"197449","pro_axc_run1_197449","AY",2800,"A","M","white","center",1,1,0,0,NA,244,1,1,0,505832,510615,510859,0,159597,35,0,346.235,-159.597,351.018,351.262,28.435,260.035,491.635,231.635,463.235,694.835
"pro","axc",1,"197449","pro_axc_run1_197449","BX",2800,"H","X","white","center",1,1,0,0,NA,0,0,NA,0,514232,519015,0,0,159597,36,0,354.635,-159.597,359.418,-159.597,28.435,260.035,491.635,231.635,463.235,694.835
"pro","axc",1,"197449","pro_axc_run1_197449","BX",4000,"D","X","white","center",1,1,343,1,1,764,0,2,0,522632,527415,528179,522975,159597,37,0,363.035,363.378,367.818,368.582,28.435,260.035,491.635,231.635,463.235,694.835
"pro","axc",1,"197449","pro_axc_run1_197449","Ang",2800,"A","2","white","center",1,NA,287,1,1,116,0,2,0,532232,537015,537131,532519,159597,38,0,372.635,372.922,377.418,377.534,28.435,260.035,491.635,231.635,463.235,694.835
"pro","axc",1,"197449","pro_axc_run1_197449","Bng",4000,"M","1","white","center",1,NA,229,1,1,0,1,NA,1,540632,545415,0,540861,159597,39,1,381.035,381.264,385.818,-159.597,28.435,260.035,491.635,231.635,463.235,694.835
"pro","axc",1,"197449","pro_axc_run1_197449","BY",1600,"P","T","white","center",1,1,0,0,NA,764,1,1,0,550232,555015,555779,0,159597,40,0,390.635,-159.597,395.418,396.182,28.435,260.035,491.635,231.635,463.235,694.835
"pro","axc",1,"197449","pro_axc_run1_197449","AX",1600,"A","X","white","center",1,2,850,1,1,0,0,NA,0,557432,562232,0,558282,159597,41,0,397.835,398.685,402.635,-159.597,28.435,260.035,491.635,231.635,463.235,694.835
"pro","axc",1,"197449","pro_axc_run1_197449","BY",1600,"U","T","white","center",1,1,372,1,1,0,0,NA,0,564615,569432,0,564987,159597,42,0,405.018,405.39,409.835,-159.597,28.435,260.035,491.635,231.635,463.235,694.835
"pro","axc",1,"197449","pro_axc_run1_197449","Ang",1600,"A","8","white","center",1,NA,378,1,1,459,0,2,0,571815,576632,577091,572193,159597,43,0,412.218,412.596,417.035,417.494,28.435,260.035,491.635,231.635,463.235,694.835
"pro","axc",1,"197449","pro_axc_run1_197449","BY",2800,"N","D","white","center",1,1,0,0,NA,0,0,NA,0,579032,583832,0,0,159597,44,0,419.435,-159.597,424.235,-159.597,28.435,260.035,491.635,231.635,463.235,694.835
"pro","axc",1,"197449","pro_axc_run1_197449","AX",4000,"A","X","white","center",1,2,0,0,NA,0,0,NA,0,587432,592215,0,0,159597,45,0,427.835,-159.597,432.618,-159.597,28.435,260.035,491.635,231.635,463.235,694.835
"pro","axc",1,"197449","pro_axc_run1_197449","Bng",2800,"T","1","white","center",1,NA,0,0,NA,876,0,1,0,597032,601832,602708,0,159597,46,0,437.435,-159.597,442.235,443.111,28.435,260.035,491.635,231.635,463.235,694.835
"pro","axc",1,"197449","pro_axc_run1_197449","BY",2800,"C","N","white","center",1,1,0,0,NA,0,0,NA,0,605432,610215,0,0,159597,47,0,445.835,-159.597,450.618,-159.597,28.435,260.035,491.635,231.635,463.235,694.835
"pro","axc",1,"197449","pro_axc_run1_197449","BY",4000,"N","H","white","center",1,1,735,1,1,0,0,NA,0,613832,618615,0,614567,159597,48,0,454.235,454.97,459.018,-159.597,28.435,260.035,491.635,231.635,463.235,694.835
"pro","axc",1,"197449","pro_axc_run1_197449","Bng",1600,"P","2","white","center",1,NA,0,0,NA,0,1,NA,0,653415,658232,0,0,159597,49,0,493.818,-159.597,498.635,-159.597,28.435,260.035,491.635,231.635,463.235,694.835
"pro","axc",1,"197449","pro_axc_run1_197449","Ang",2800,"A","4","white","center",1,NA,252,1,1,265,0,2,0,660615,665432,665697,660867,159597,50,0,501.018,501.27,505.835,506.1,28.435,260.035,491.635,231.635,463.235,694.835
"pro","axc",1,"197449","pro_axc_run1_197449","BY",2800,"T","P","white","center",1,1,371,1,1,0,0,NA,0,669032,673832,0,669403,159597,51,0,509.435,509.806,514.235,-159.597,28.435,260.035,491.635,231.635,463.235,694.835
"pro","axc",1,"197449","pro_axc_run1_197449","BX",2800,"N","X","white","center",1,1,0,0,NA,0,0,NA,0,677432,682232,0,0,159597,52,0,517.835,-159.597,522.635,-159.597,28.435,260.035,491.635,231.635,463.235,694.835
"pro","axc",1,"197449","pro_axc_run1_197449","BY",1600,"F","H","white","center",1,1,0,0,NA,408,0,2,0,685832,690632,691040,0,159597,53,0,526.235,-159.597,531.035,531.443,28.435,260.035,491.635,231.635,463.235,694.835
"pro","axc",1,"197449","pro_axc_run1_197449","BY",4000,"D","C","white","center",1,1,509,1,1,358,1,1,1,693032,697815,698173,693541,159597,54,1,533.435,533.944,538.218,538.576,28.435,260.035,491.635,231.635,463.235,694.835
"pro","axc",1,"197449","pro_axc_run1_197449","AY",4000,"A","U","white","center",1,1,0,0,NA,436,1,1,0,702632,707415,707851,0,159597,55,0,543.035,-159.597,547.818,548.254,28.435,260.035,491.635,231.635,463.235,694.835
"pro","axc",1,"197449","pro_axc_run1_197449","Bng",2800,"C","7","white","center",1,NA,372,1,1,0,1,NA,1,712232,717032,0,712604,159597,56,1,552.635,553.007,557.435,-159.597,28.435,260.035,491.635,231.635,463.235,694.835
"pro","axc",1,"197449","pro_axc_run1_197449","BY",4000,"H","C","white","center",1,1,0,0,NA,668,1,1,0,720632,725415,726083,0,159597,57,0,561.035,-159.597,565.818,566.486,28.435,260.035,491.635,231.635,463.235,694.835
"pro","axc",1,"197449","pro_axc_run1_197449","Ang",1600,"A","6","white","center",1,NA,0,0,NA,0,1,NA,0,730232,735032,0,0,159597,58,0,570.635,-159.597,575.435,-159.597,28.435,260.035,491.635,231.635,463.235,694.835
"pro","axc",1,"197449","pro_axc_run1_197449","AX",1600,"A","X","white","center",1,2,0,0,NA,699,0,1,0,737432,742215,742914,0,159597,59,0,577.835,-159.597,582.618,583.317,28.435,260.035,491.635,231.635,463.235,694.835
"pro","axc",1,"197449","pro_axc_run1_197449","AX",4000,"A","X","white","center",1,2,463,1,1,0,0,NA,0,744632,749415,0,745095,159597,60,0,585.035,585.498,589.818,-159.597,28.435,260.035,491.635,231.635,463.235,694.835
"pro","axc",1,"197449","pro_axc_run1_197449","BY",1600,"U","F","white","center",1,1,469,1,1,0,0,NA,0,754232,759015,0,754701,159597,61,0,594.635,595.104,599.418,-159.597,28.435,260.035,491.635,231.635,463.235,694.835
"pro","axc",1,"197449","pro_axc_run1_197449","AX",2800,"A","X","white","center",1,2,0,0,NA,295,0,1,0,761432,766232,766527,0,159597,62,0,601.835,-159.597,606.635,606.93,28.435,260.035,491.635,231.635,463.235,694.835
"pro","axc",1,"197449","pro_axc_run1_197449","AX",4000,"A","X","white","center",1,2,290,1,1,188,1,2,1,769815,774632,774820,770105,159597,63,1,610.218,610.508,615.035,615.223,28.435,260.035,491.635,231.635,463.235,694.835
"pro","axc",1,"197449","pro_axc_run1_197449","BX",4000,"H","X","white","center",1,1,0,0,NA,0,0,NA,0,779432,784232,0,0,159597,64,0,619.835,-159.597,624.635,-159.597,28.435,260.035,491.635,231.635,463.235,694.835
"pro","axc",1,"197449","pro_axc_run1_197449","BY",2800,"T","P","white","center",1,1,1192,1,1,0,0,NA,0,789032,793815,0,790224,159597,65,0,629.435,630.627,634.218,-159.597,28.435,260.035,491.635,231.635,463.235,694.835
"pro","axc",1,"197449","pro_axc_run1_197449","BY",4000,"F","D","white","center",1,1,664,1,1,0,0,NA,0,797432,802232,0,798096,159597,66,0,637.835,638.499,642.635,-159.597,28.435,260.035,491.635,231.635,463.235,694.835
"pro","axc",1,"197449","pro_axc_run1_197449","AX",1600,"A","X","white","center",1,2,440,1,1,0,0,NA,0,807032,811815,0,807472,159597,67,0,647.435,647.875,652.218,-159.597,28.435,260.035,491.635,231.635,463.235,694.835
"pro","axc",1,"197449","pro_axc_run1_197449","AX",1600,"A","X","white","center",1,2,0,0,NA,0,0,NA,0,814215,819032,0,0,159597,68,0,654.618,-159.597,659.435,-159.597,28.435,260.035,491.635,231.635,463.235,694.835
"pro","axc",1,"197449","pro_axc_run1_197449","AY",4000,"A","F","white","center",1,1,0,0,NA,0,0,NA,0,821415,826232,0,0,159597,69,0,661.818,-159.597,666.635,-159.597,28.435,260.035,491.635,231.635,463.235,694.835
"pro","axc",1,"197449","pro_axc_run1_197449","BY",1600,"T","H","white","center",1,1,265,1,1,0,0,NA,0,831015,835832,0,831280,159597,70,0,671.418,671.683,676.235,-159.597,28.435,260.035,491.635,231.635,463.235,694.835
"pro","axc",1,"197449","pro_axc_run1_197449","AX",2800,"A","X","white","center",1,2,0,0,NA,0,0,NA,0,838215,843032,0,0,159597,71,0,678.618,-159.597,683.435,-159.597,28.435,260.035,491.635,231.635,463.235,694.835
"pro","axc",1,"197449","pro_axc_run1_197449","AX",2800,"A","X","white","center",1,2,0,0,NA,557,1,2,0,846632,851432,851989,0,159597,72,0,687.035,-159.597,691.835,692.392,28.435,260.035,491.635,231.635,463.235,694.835
"pro","axc",2,"197449","pro_axc_run2_197449","BY",1600,"F","C","white","center",1,1,0,0,NA,0,0,NA,0,70768,75551,0,0,40124,1,0,30.644,-40.124,35.427,-40.124,28.427,260.027,491.643,231.644,463.243,694.843
"pro","axc",2,"197449","pro_axc_run2_197449","BY",1600,"M","F","white","center",1,1,278,1,1,458,1,1,1,77951,82768,83226,78229,40124,2,1,37.827,38.105,42.644,43.102,28.427,260.027,491.643,231.644,463.243,694.843
"pro","axc",2,"197449","pro_axc_run2_197449","Bng",4000,"T","9","white","center",1,NA,453,1,1,0,1,NA,1,85151,89968,0,85604,40124,3,1,45.027,45.48,49.844,-40.124,28.427,260.027,491.643,231.644,463.243,694.843
"pro","axc",2,"197449","pro_axc_run2_197449","BY",2800,"H","T","white","center",1,1,391,1,1,485,1,1,1,94751,99568,100053,95142,40124,4,1,54.627,55.018,59.444,59.929,28.427,260.027,491.643,231.644,463.243,694.843
"pro","axc",2,"197449","pro_axc_run2_197449","BY",2800,"T","M","white","center",1,1,0,0,NA,0,0,NA,0,103151,107968,0,0,40124,5,0,63.027,-40.124,67.844,-40.124,28.427,260.027,491.643,231.644,463.243,694.843
"pro","axc",2,"197449","pro_axc_run2_197449","AX",4000,"A","X","white","center",1,2,439,1,1,160,1,2,1,111551,116368,116528,111990,40124,6,1,71.427,71.866,76.244,76.404,28.427,260.027,491.643,231.644,463.243,694.843
"pro","axc",2,"197449","pro_axc_run2_197449","AY",1600,"A","D","white","center",1,1,353,1,1,829,1,1,1,121151,125968,126797,121504,40124,7,1,81.027,81.38,85.844,86.673,28.427,260.027,491.643,231.644,463.243,694.843
"pro","axc",2,"197449","pro_axc_run2_197449","BY",4000,"M","P","white","center",1,1,460,1,1,0,0,NA,0,128351,133168,0,128811,40124,8,0,88.227,88.687,93.044,-40.124,28.427,260.027,491.643,231.644,463.243,694.843
"pro","axc",2,"197449","pro_axc_run2_197449","AX",2800,"A","X","white","center",1,2,0,0,NA,1196,0,1,0,137951,142768,143964,0,40124,9,0,97.827,-40.124,102.644,103.84,28.427,260.027,491.643,231.644,463.243,694.843
"pro","axc",2,"197449","pro_axc_run2_197449","Ang",4000,"A","3","white","center",1,NA,330,1,1,11,0,2,0,146351,151168,151179,146681,40124,10,0,106.227,106.557,111.044,111.055,28.427,260.027,491.643,231.644,463.243,694.843
"pro","axc",2,"197449","pro_axc_run2_197449","BY",1600,"U","D","white","center",1,1,0,0,NA,361,1,1,0,155951,160768,161129,0,40124,11,0,115.827,-40.124,120.644,121.005,28.427,260.027,491.643,231.644,463.243,694.843
"pro","axc",2,"197449","pro_axc_run2_197449","AY",2800,"A","H","white","center",1,1,0,0,NA,0,0,NA,0,163168,167968,0,0,40124,12,0,123.044,-40.124,127.844,-40.124,28.427,260.027,491.643,231.644,463.243,694.843
"pro","axc",2,"197449","pro_axc_run2_197449","BY",2800,"P","M","white","center",1,1,473,1,1,424,1,1,1,171568,176368,176792,172041,40124,13,1,131.444,131.917,136.244,136.668,28.427,260.027,491.643,231.644,463.243,694.843
"pro","axc",2,"197449","pro_axc_run2_197449","AX",1600,"A","X","white","center",1,2,304,1,1,547,1,2,1,179968,184751,185298,180272,40124,14,1,139.844,140.148,144.627,145.174,28.427,260.027,491.643,231.644,463.243,694.843
"pro","axc",2,"197449","pro_axc_run2_197449","AX",1600,"A","X","white","center",1,2,321,1,1,557,1,2,1,187168,191951,192508,187489,40124,15,1,147.044,147.365,151.827,152.384,28.427,260.027,491.643,231.644,463.243,694.843
"pro","axc",2,"197449","pro_axc_run2_197449","BX",4000,"F","X","white","center",1,1,474,1,1,0,0,NA,0,194368,199168,0,194842,40124,16,0,154.244,154.718,159.044,-40.124,28.427,260.027,491.643,231.644,463.243,694.843
"pro","axc",2,"197449","pro_axc_run2_197449","BX",4000,"C","X","white","center",1,1,0,0,NA,0,0,NA,0,203968,208751,0,0,40124,17,0,163.844,-40.124,168.627,-40.124,28.427,260.027,491.643,231.644,463.243,694.843
"pro","axc",2,"197449","pro_axc_run2_197449","AX",4000,"A","X","white","center",1,2,343,1,1,0,0,NA,0,213568,218351,0,213911,40124,18,0,173.444,173.787,178.227,-40.124,28.427,260.027,491.643,231.644,463.243,694.843
"pro","axc",2,"197449","pro_axc_run2_197449","AX",4000,"A","X","white","center",1,2,863,1,1,224,1,2,1,223168,227951,228175,224031,40124,19,1,183.044,183.907,187.827,188.051,28.427,260.027,491.643,231.644,463.243,694.843
"pro","axc",2,"197449","pro_axc_run2_197449","AX",1600,"A","X","white","center",1,2,298,1,1,0,0,NA,0,232768,237551,0,233066,40124,20,0,192.644,192.942,197.427,-40.124,28.427,260.027,491.643,231.644,463.243,694.843
"pro","axc",2,"197449","pro_axc_run2_197449","AX",2800,"A","X","white","center",1,2,0,0,NA,0,0,NA,0,239968,244751,0,0,40124,21,0,199.844,-40.124,204.627,-40.124,28.427,260.027,491.643,231.644,463.243,694.843
"pro","axc",2,"197449","pro_axc_run2_197449","BY",2800,"P","H","white","center",1,1,354,1,1,0,0,NA,0,248368,253151,0,248722,40124,22,0,208.244,208.598,213.027,-40.124,28.427,260.027,491.643,231.644,463.243,694.843
"pro","axc",2,"197449","pro_axc_run2_197449","Ang",2800,"A","7","white","center",1,NA,631,1,1,0,1,NA,1,256768,261568,0,257399,40124,23,1,216.644,217.275,221.444,-40.124,28.427,260.027,491.643,231.644,463.243,694.843
"pro","axc",2,"197449","pro_axc_run2_197449","Bng",1600,"U","7","white","center",1,NA,389,1,1,0,1,NA,1,265168,269967,0,265557,40124,24,1,225.044,225.433,229.843,-40.124,28.427,260.027,491.643,231.644,463.243,694.843
"pro","axc",2,"197449","pro_axc_run2_197449","AX",4000,"A","X","white","center",1,2,287,1,1,559,1,2,1,302367,307151,307710,302654,40124,25,1,262.243,262.53,267.027,267.586,28.427,260.027,491.643,231.644,463.243,694.843
"pro","axc",2,"197449","pro_axc_run2_197449","AY",2800,"A","N","white","center",1,1,650,1,1,571,1,1,1,311967,316751,317322,312617,40124,26,1,271.843,272.493,276.627,277.198,28.427,260.027,491.643,231.644,463.243,694.843
"pro","axc",2,"197449","pro_axc_run2_197449","AX",2800,"A","X","white","center",1,2,0,0,NA,634,0,1,0,320367,325151,325785,0,40124,27,0,280.243,-40.124,285.027,285.661,28.427,260.027,491.643,231.644,463.243,694.843
"pro","axc",2,"197449","pro_axc_run2_197449","BY",4000,"D","T","white","center",1,1,262,1,1,0,0,NA,0,328767,333551,0,329029,40124,28,0,288.643,288.905,293.427,-40.124,28.427,260.027,491.643,231.644,463.243,694.843
"pro","axc",2,"197449","pro_axc_run2_197449","BY",1600,"C","D","white","center",1,1,350,1,1,0,0,NA,0,338367,343151,0,338717,40124,29,0,298.243,298.593,303.027,-40.124,28.427,260.027,491.643,231.644,463.243,694.843
"pro","axc",2,"197449","pro_axc_run2_197449","BX",2800,"M","X","white","center",1,1,0,0,NA,378,1,1,0,345567,350367,350745,0,40124,30,0,305.443,-40.124,310.243,310.621,28.427,260.027,491.643,231.644,463.243,694.843
"pro","axc",2,"197449","pro_axc_run2_197449","AX",1600,"A","X","white","center",1,2,308,1,1,86,1,2,1,353967,358767,358853,354275,40124,31,1,313.843,314.151,318.643,318.729,28.427,260.027,491.643,231.644,463.243,694.843
"pro","axc",2,"197449","pro_axc_run2_197449","AX",4000,"A","X","white","center",1,2,615,1,1,415,1,2,1,361151,365967,366382,361766,40124,32,1,321.027,321.642,325.843,326.258,28.427,260.027,491.643,231.644,463.243,694.843
"pro","axc",2,"197449","pro_axc_run2_197449","AX",4000,"A","X","white","center",1,2,0,0,NA,0,0,NA,0,370751,375567,0,0,40124,33,0,330.627,-40.124,335.443,-40.124,28.427,260.027,491.643,231.644,463.243,694.843
"pro","axc",2,"197449","pro_axc_run2_197449","BY",1600,"T","N","white","center",1,1,0,0,NA,298,1,1,0,380351,385167,385465,0,40124,34,0,340.227,-40.124,345.043,345.341,28.427,260.027,491.643,231.644,463.243,694.843
"pro","axc",2,"197449","pro_axc_run2_197449","AX",2800,"A","X","white","center",1,2,460,1,1,455,0,1,0,387551,392367,392822,388011,40124,35,0,347.427,347.887,352.243,352.698,28.427,260.027,491.643,231.644,463.243,694.843
"pro","axc",2,"197449","pro_axc_run2_197449","BY",1600,"C","M","white","center",1,1,291,1,1,521,1,1,1,395951,400767,401288,396242,40124,36,1,355.827,356.118,360.643,361.164,28.427,260.027,491.643,231.644,463.243,694.843
"pro","axc",2,"197449","pro_axc_run2_197449","Bng",4000,"F","9","white","center",1,NA,366,1,1,0,1,NA,1,403167,407967,0,403533,40124,37,1,363.043,363.409,367.843,-40.124,28.427,260.027,491.643,231.644,463.243,694.843
"pro","axc",2,"197449","pro_axc_run2_197449","BX",1600,"P","X","white","center",1,1,0,0,NA,309,1,1,0,412751,417567,417876,0,40124,38,0,372.627,-40.124,377.443,377.752,28.427,260.027,491.643,231.644,463.243,694.843
"pro","axc",2,"197449","pro_axc_run2_197449","Ang",4000,"A","9","white","center",1,NA,0,0,NA,0,1,NA,0,419967,424751,0,0,40124,39,0,379.843,-40.124,384.627,-40.124,28.427,260.027,491.643,231.644,463.243,694.843
"pro","axc",2,"197449","pro_axc_run2_197449","BY",4000,"D","N","white","center",1,1,292,1,1,0,0,NA,0,429567,434367,0,429859,40124,40,0,389.443,389.735,394.243,-40.124,28.427,260.027,491.643,231.644,463.243,694.843
"pro","axc",2,"197449","pro_axc_run2_197449","Ang",4000,"A","5","white","center",1,NA,393,1,1,0,1,NA,1,439167,443967,0,439560,40124,41,1,399.043,399.436,403.843,-40.124,28.427,260.027,491.643,231.644,463.243,694.843
"pro","axc",2,"197449","pro_axc_run2_197449","BY",1600,"N","U","white","center",1,1,0,0,NA,0,0,NA,0,448751,453567,0,0,40124,42,0,408.627,-40.124,413.443,-40.124,28.427,260.027,491.643,231.644,463.243,694.843
"pro","axc",2,"197449","pro_axc_run2_197449","BY",2800,"H","U","white","center",1,1,0,0,NA,0,0,NA,0,455967,460767,0,0,40124,43,0,415.843,-40.124,420.643,-40.124,28.427,260.027,491.643,231.644,463.243,694.843
"pro","axc",2,"197449","pro_axc_run2_197449","AY",2800,"A","T","white","center",1,1,322,1,1,1246,1,1,1,464367,469151,470397,464689,40124,44,1,424.243,424.565,429.027,430.273,28.427,260.027,491.643,231.644,463.243,694.843
"pro","axc",2,"197449","pro_axc_run2_197449","Bng",1600,"U","5","white","center",1,NA,858,1,1,0,1,NA,1,472767,477551,0,473625,40124,45,1,432.643,433.501,437.427,-40.124,28.427,260.027,491.643,231.644,463.243,694.843
"pro","axc",2,"197449","pro_axc_run2_197449","AX",1600,"A","X","white","center",1,2,0,0,NA,0,0,NA,0,479967,484751,0,0,40124,46,0,439.843,-40.124,444.627,-40.124,28.427,260.027,491.643,231.644,463.243,694.843
"pro","axc",2,"197449","pro_axc_run2_197449","BY",2800,"U","P","white","center",1,1,1045,1,1,0,0,NA,0,487167,491967,0,488212,40124,47,0,447.043,448.088,451.843,-40.124,28.427,260.027,491.643,231.644,463.243,694.843
"pro","axc",2,"197449","pro_axc_run2_197449","AX",2800,"A","X","white","center",1,2,279,1,1,0,0,NA,0,495551,500367,0,495830,40124,48,0,455.427,455.706,460.243,-40.124,28.427,260.027,491.643,231.644,463.243,694.843
"pro","axc",2,"197449","pro_axc_run2_197449","BY",1600,"F","M","white","center",1,1,320,1,1,535,1,1,1,533967,538751,539286,534287,40124,49,1,493.843,494.163,498.627,499.162,28.427,260.027,491.643,231.644,463.243,694.843
"pro","axc",2,"197449","pro_axc_run2_197449","BY",4000,"N","P","white","center",1,1,327,1,1,526,1,1,1,541167,545951,546477,541494,40124,50,1,501.043,501.37,505.827,506.353,28.427,260.027,491.643,231.644,463.243,694.843
"pro","axc",2,"197449","pro_axc_run2_197449","AX",1600,"A","X","white","center",1,2,500,1,1,788,0,1,0,550767,555551,556339,551267,40124,51,0,510.643,511.143,515.427,516.215,28.427,260.027,491.643,231.644,463.243,694.843
"pro","axc",2,"197449","pro_axc_run2_197449","BY",1600,"H","T","white","center",1,1,277,1,1,541,1,1,1,557951,562767,563308,558228,40124,52,1,517.827,518.104,522.643,523.184,28.427,260.027,491.643,231.644,463.243,694.843
"pro","axc",2,"197449","pro_axc_run2_197449","AX",4000,"A","X","white","center",1,2,0,0,NA,468,0,1,0,565151,569967,570435,0,40124,53,0,525.027,-40.124,529.843,530.311,28.427,260.027,491.643,231.644,463.243,694.843
"pro","axc",2,"197449","pro_axc_run2_197449","BY",2800,"N","U","white","center",1,1,0,0,NA,0,0,NA,0,574751,579567,0,0,40124,54,0,534.627,-40.124,539.443,-40.124,28.427,260.027,491.643,231.644,463.243,694.843
"pro","axc",2,"197449","pro_axc_run2_197449","AX",2800,"A","X","white","center",1,2,0,0,NA,343,0,1,0,583151,587967,588310,0,40124,55,0,543.027,-40.124,547.843,548.186,28.427,260.027,491.643,231.644,463.243,694.843
"pro","axc",2,"197449","pro_axc_run2_197449","AY",2800,"A","H","white","center",1,1,251,1,1,153,0,2,0,591551,596367,596520,591802,40124,56,0,551.427,551.678,556.243,556.396,28.427,260.027,491.643,231.644,463.243,694.843
"pro","axc",2,"197449","pro_axc_run2_197449","BX",2800,"U","X","white","center",1,1,381,1,1,377,0,2,0,599951,604767,605144,600332,40124,57,0,559.827,560.208,564.643,565.02,28.427,260.027,491.643,231.644,463.243,694.843
"pro","axc",2,"197449","pro_axc_run2_197449","AX",4000,"A","X","white","center",1,2,363,1,1,120,1,2,1,608351,613167,613287,608714,40124,58,1,568.227,568.59,573.043,573.163,28.427,260.027,491.643,231.644,463.243,694.843
"pro","axc",2,"197449","pro_axc_run2_197449","BY",4000,"N","P","white","center",1,1,0,0,NA,634,1,1,0,617950,622767,623401,0,40124,59,0,577.826,-40.124,582.643,583.277,28.427,260.027,491.643,231.644,463.243,694.843
"pro","axc",2,"197449","pro_axc_run2_197449","AX",1600,"A","X","white","center",1,2,556,1,1,563,1,2,1,627550,632367,632930,628106,40124,60,1,587.426,587.982,592.243,592.806,28.427,260.027,491.643,231.644,463.243,694.843
"pro","axc",2,"197449","pro_axc_run2_197449","AX",2800,"A","X","white","center",1,2,414,1,1,461,1,2,1,634750,639567,640028,635164,40124,61,1,594.626,595.04,599.443,599.904,28.427,260.027,491.643,231.644,463.243,694.843
"pro","axc",2,"197449","pro_axc_run2_197449","BY",2800,"M","F","white","center",1,1,440,1,1,457,1,1,1,643167,647967,648424,643607,40124,62,1,603.043,603.483,607.843,608.3,28.427,260.027,491.643,231.644,463.243,694.843
"pro","axc",2,"197449","pro_axc_run2_197449","AX",1600,"A","X","white","center",1,2,471,1,1,485,1,2,1,651567,656367,656852,652038,40124,63,1,611.443,611.914,616.243,616.728,28.427,260.027,491.643,231.644,463.243,694.843
"pro","axc",2,"197449","pro_axc_run2_197449","Ang",4000,"A","1","white","center",1,NA,431,1,1,0,1,NA,1,658767,663550,0,659198,40124,64,1,618.643,619.074,623.426,-40.124,28.427,260.027,491.643,231.644,463.243,694.843
"pro","axc",2,"197449","pro_axc_run2_197449","BY",1600,"T","M","white","center",1,1,0,0,NA,0,0,NA,0,668367,673150,0,0,40124,65,0,628.243,-40.124,633.026,-40.124,28.427,260.027,491.643,231.644,463.243,694.843
"pro","axc",2,"197449","pro_axc_run2_197449","Bng",4000,"H","5","white","center",1,NA,0,0,NA,0,1,NA,0,675567,680350,0,0,40124,66,0,635.443,-40.124,640.226,-40.124,28.427,260.027,491.643,231.644,463.243,694.843
"pro","axc",2,"197449","pro_axc_run2_197449","BY",2800,"D","T","white","center",1,1,444,1,1,731,1,1,1,685167,689950,690681,685611,40124,67,1,645.043,645.487,649.826,650.557,28.427,260.027,491.643,231.644,463.243,694.843
"pro","axc",2,"197449","pro_axc_run2_197449","AY",4000,"A","N","white","center",1,1,439,1,1,449,1,1,1,693567,698350,698799,694006,40124,68,1,653.443,653.882,658.226,658.675,28.427,260.027,491.643,231.644,463.243,694.843
"pro","axc",2,"197449","pro_axc_run2_197449","Bng",1600,"D","4","white","center",1,NA,523,1,1,0,1,NA,1,703167,707950,0,703690,40124,69,1,663.043,663.566,667.826,-40.124,28.427,260.027,491.643,231.644,463.243,694.843
"pro","axc",2,"197449","pro_axc_run2_197449","BX",1600,"M","X","white","center",1,1,274,1,1,0,0,NA,0,710367,715150,0,710641,40124,70,0,670.243,670.517,675.026,-40.124,28.427,260.027,491.643,231.644,463.243,694.843
"pro","axc",2,"197449","pro_axc_run2_197449","AX",4000,"A","X","white","center",1,2,0,0,NA,548,0,1,0,717550,722367,722915,0,40124,71,0,677.426,-40.124,682.243,682.791,28.427,260.027,491.643,231.644,463.243,694.843
"pro","axc",2,"197449","pro_axc_run2_197449","Ang",2800,"A","9","white","center",1,NA,0,0,NA,0,1,NA,0,727167,731967,0,0,40124,72,0,687.043,-40.124,691.843,-40.124,28.427,260.027,491.643,231.644,463.243,694.843
"rea","axc",1,"197449","rea_axc_run1_197449","AX",1600,"A","X","white","Above",1,2,804,1,1,633,1,2,1,148215,153032,153665,149019,117602,1,1,30.613,31.417,35.43,36.063,28.43,260.013,491.613,231.647,463.247,694.847
"rea","axc",1,"197449","rea_axc_run1_197449","Ang",4000,"A","6","red","Below",1,NA,0,0,NA,0,1,NA,0,155415,160232,0,0,117602,2,0,37.813,-117.602,42.63,-117.602,28.43,260.013,491.613,231.647,463.247,694.847
"rea","axc",1,"197449","rea_axc_run1_197449","BY",2800,"P","M","white","Above",1,1,735,1,1,621,1,1,1,165015,169832,170453,165750,117602,3,1,47.413,48.148,52.23,52.851,28.43,260.013,491.613,231.647,463.247,694.847
"rea","axc",1,"197449","rea_axc_run1_197449","AX",1600,"A","X","white","Above",1,2,529,1,1,0,0,NA,0,173415,178232,0,173944,117602,4,0,55.813,56.342,60.63,-117.602,28.43,260.013,491.613,231.647,463.247,694.847
"rea","axc",1,"197449","rea_axc_run1_197449","Bng",1600,"N","2","red","Below",1,NA,762,0,2,539,0,1,0,180632,185432,185971,181394,117602,5,0,63.03,63.792,67.83,68.369,28.43,260.013,491.613,231.647,463.247,694.847
"rea","axc",1,"197449","rea_axc_run1_197449","AX",1600,"A","X","white","Above",1,2,1034,1,1,0,0,NA,0,187832,192615,0,188866,117602,6,0,70.23,71.264,75.013,-117.602,28.43,260.013,491.613,231.647,463.247,694.847
"rea","axc",1,"197449","rea_axc_run1_197449","BY",2800,"C","M","white","Above",1,1,0,0,NA,0,0,NA,0,195032,199815,0,0,117602,7,0,77.43,-117.602,82.213,-117.602,28.43,260.013,491.613,231.647,463.247,694.847
"rea","axc",1,"197449","rea_axc_run1_197449","BY",4000,"U","P","white","Above",1,1,0,0,NA,295,1,1,0,203432,208232,208527,0,117602,8,0,85.83,-117.602,90.63,90.925,28.43,260.013,491.613,231.647,463.247,694.847
"rea","axc",1,"197449","rea_axc_run1_197449","BY",4000,"N","P","white","Above",1,1,0,0,NA,465,1,1,0,213032,217815,218280,0,117602,9,0,95.43,-117.602,100.213,100.678,28.43,260.013,491.613,231.647,463.247,694.847
"rea","axc",1,"197449","rea_axc_run1_197449","BX",2800,"C","X","red","Below",1,1,406,1,1,820,1,1,1,222632,227415,228235,223038,117602,10,1,105.03,105.436,109.813,110.633,28.43,260.013,491.613,231.647,463.247,694.847
"rea","axc",1,"197449","rea_axc_run1_197449","AY",4000,"A","H","red","Below",1,1,0,0,NA,0,0,NA,0,231032,235815,0,0,117602,11,0,113.43,-117.602,118.213,-117.602,28.43,260.013,491.613,231.647,463.247,694.847
"rea","axc",1,"197449","rea_axc_run1_197449","AX",2800,"A","X","white","Above",1,2,638,1,1,0,0,NA,0,240632,245415,0,241270,117602,12,0,123.03,123.668,127.813,-117.602,28.43,260.013,491.613,231.647,463.247,694.847
"rea","axc",1,"197449","rea_axc_run1_197449","AY",2800,"A","N","red","Below",1,1,0,0,NA,0,0,NA,0,249032,253815,0,0,117602,13,0,131.43,-117.602,136.213,-117.602,28.43,260.013,491.613,231.647,463.247,694.847
"rea","axc",1,"197449","rea_axc_run1_197449","AX",4000,"A","X","white","Above",1,2,307,1,1,602,1,2,1,257432,262215,262817,257739,117602,14,1,139.83,140.137,144.613,145.215,28.43,260.013,491.613,231.647,463.247,694.847
"rea","axc",1,"197449","rea_axc_run1_197449","BY",2800,"D","T","white","Above",1,1,0,0,NA,595,1,1,0,267032,271815,272410,0,117602,15,0,149.43,-117.602,154.213,154.808,28.43,260.013,491.613,231.647,463.247,694.847
"rea","axc",1,"197449","rea_axc_run1_197449","BY",2800,"M","F","white","Above",1,1,0,0,NA,0,0,NA,0,275432,280215,0,0,117602,16,0,157.83,-117.602,162.613,-117.602,28.43,260.013,491.613,231.647,463.247,694.847
"rea","axc",1,"197449","rea_axc_run1_197449","AX",1600,"A","X","white","Above",1,2,687,1,1,0,0,NA,0,283832,288615,0,284519,117602,17,0,166.23,166.917,171.013,-117.602,28.43,260.013,491.613,231.647,463.247,694.847
"rea","axc",1,"197449","rea_axc_run1_197449","BX",4000,"M","X","red","Below",1,1,0,0,NA,963,1,1,0,291015,295832,296795,0,117602,18,0,173.413,-117.602,178.23,179.193,28.43,260.013,491.613,231.647,463.247,694.847
"rea","axc",1,"197449","rea_axc_run1_197449","AX",1600,"A","X","white","Above",1,2,0,0,NA,0,0,NA,0,300632,305432,0,0,117602,19,0,183.03,-117.602,187.83,-117.602,28.43,260.013,491.613,231.647,463.247,694.847
"rea","axc",1,"197449","rea_axc_run1_197449","Bng",2800,"D","1","red","Below",1,NA,0,0,NA,643,0,1,0,307815,312632,313275,0,117602,20,0,190.213,-117.602,195.03,195.673,28.43,260.013,491.613,231.647,463.247,694.847
"rea","axc",1,"197449","rea_axc_run1_197449","BY",1600,"F","M","white","Above",1,1,0,0,NA,0,0,NA,0,316215,321032,0,0,117602,21,0,198.613,-117.602,203.43,-117.602,28.43,260.013,491.613,231.647,463.247,694.847
"rea","axc",1,"197449","rea_axc_run1_197449","AX",1600,"A","X","white","Above",1,2,530,1,1,0,0,NA,0,323432,328232,0,323962,117602,22,0,205.83,206.36,210.63,-117.602,28.43,260.013,491.613,231.647,463.247,694.847
"rea","axc",1,"197449","rea_axc_run1_197449","BY",4000,"D","N","white","Above",1,1,0,0,NA,0,0,NA,0,330632,335415,0,0,117602,23,0,213.03,-117.602,217.813,-117.602,28.43,260.013,491.613,231.647,463.247,694.847
"rea","axc",1,"197449","rea_axc_run1_197449","Ang",4000,"A","8","red","Below",1,NA,0,0,NA,0,1,NA,0,340232,345032,0,0,117602,24,0,222.63,-117.602,227.43,-117.602,28.43,260.013,491.613,231.647,463.247,694.847
"rea","axc",1,"197449","rea_axc_run1_197449","BY",4000,"U","D","white","Above",1,1,0,0,NA,509,1,1,0,379815,384632,385141,0,117602,25,0,262.213,-117.602,267.03,267.539,28.43,260.013,491.613,231.647,463.247,694.847
"rea","axc",1,"197449","rea_axc_run1_197449","BY",2800,"H","T","white","Above",1,1,0,0,NA,0,0,NA,0,389415,394232,0,0,117602,26,0,271.813,-117.602,276.63,-117.602,28.43,260.013,491.613,231.647,463.247,694.847
"rea","axc",1,"197449","rea_axc_run1_197449","Ang",2800,"A","2","red","Below",1,NA,0,0,NA,0,1,NA,0,397815,402632,0,0,117602,27,0,280.213,-117.602,285.03,-117.602,28.43,260.013,491.613,231.647,463.247,694.847
"rea","axc",1,"197449","rea_axc_run1_197449","BX",4000,"P","X","red","Below",1,1,0,0,NA,297,1,1,0,406215,411032,411329,0,117602,28,0,288.613,-117.602,293.43,293.727,28.43,260.013,491.613,231.647,463.247,694.847
"rea","axc",1,"197449","rea_axc_run1_197449","AX",2800,"A","X","white","Above",1,2,0,0,NA,490,0,1,0,415815,420632,421122,0,117602,29,0,298.213,-117.602,303.03,303.52,28.43,260.013,491.613,231.647,463.247,694.847
"rea","axc",1,"197449","rea_axc_run1_197449","Ang",1600,"A","4","red","Below",1,NA,469,1,1,0,1,NA,1,424215,429032,0,424684,117602,30,1,306.613,307.082,311.43,-117.602,28.43,260.013,491.613,231.647,463.247,694.847
"rea","axc",1,"197449","rea_axc_run1_197449","AX",1600,"A","X","white","Above",1,2,0,0,NA,0,0,NA,0,431415,436232,0,0,117602,31,0,313.813,-117.602,318.63,-117.602,28.43,260.013,491.613,231.647,463.247,694.847
"rea","axc",1,"197449","rea_axc_run1_197449","AX",1600,"A","X","white","Above",1,2,0,0,NA,0,0,NA,0,438632,443432,0,0,117602,32,0,321.03,-117.602,325.83,-117.602,28.43,260.013,491.613,231.647,463.247,694.847
"rea","axc",1,"197449","rea_axc_run1_197449","AX",4000,"A","X","white","Above",1,2,0,0,NA,0,0,NA,0,445832,450615,0,0,117602,33,0,328.23,-117.602,333.013,-117.602,28.43,260.013,491.613,231.647,463.247,694.847
"rea","axc",1,"197449","rea_axc_run1_197449","BY",2800,"H","U","white","Above",1,1,0,0,NA,0,0,NA,0,455432,460215,0,0,117602,34,0,337.83,-117.602,342.613,-117.602,28.43,260.013,491.613,231.647,463.247,694.847
"rea","axc",1,"197449","rea_axc_run1_197449","Bng",4000,"H","1","red","Below",1,NA,735,1,1,0,1,NA,1,463832,468615,0,464567,117602,35,1,346.23,346.965,351.013,-117.602,28.43,260.013,491.613,231.647,463.247,694.847
"rea","axc",1,"197449","rea_axc_run1_197449","BY",1600,"T","M","white","Above",1,1,0,0,NA,273,1,1,0,473432,478215,478488,0,117602,36,0,355.83,-117.602,360.613,360.886,28.43,260.013,491.613,231.647,463.247,694.847
"rea","axc",1,"197449","rea_axc_run1_197449","BY",2800,"N","U","white","Above",1,1,0,0,NA,0,0,NA,0,480632,485415,0,0,117602,37,0,363.03,-117.602,367.813,-117.602,28.43,260.013,491.613,231.647,463.247,694.847
"rea","axc",1,"197449","rea_axc_run1_197449","BY",2800,"C","D","white","Above",1,1,0,0,NA,0,0,NA,0,489032,493815,0,0,117602,38,0,371.43,-117.602,376.213,-117.602,28.43,260.013,491.613,231.647,463.247,694.847
"rea","axc",1,"197449","rea_axc_run1_197449","AX",2800,"A","X","white","Above",1,2,348,1,1,0,0,NA,0,497432,502215,0,497780,117602,39,0,379.83,380.178,384.613,-117.602,28.43,260.013,491.613,231.647,463.247,694.847
"rea","axc",1,"197449","rea_axc_run1_197449","AX",1600,"A","X","white","Above",1,2,0,0,NA,0,0,NA,0,505832,510615,0,0,117602,40,0,388.23,-117.602,393.013,-117.602,28.43,260.013,491.613,231.647,463.247,694.847
"rea","axc",1,"197449","rea_axc_run1_197449","AY",4000,"A","T","red","Below",1,1,0,0,NA,0,0,NA,0,513015,517832,0,0,117602,41,0,395.413,-117.602,400.23,-117.602,28.43,260.013,491.613,231.647,463.247,694.847
"rea","axc",1,"197449","rea_axc_run1_197449","AX",1600,"A","X","white","Above",1,2,363,1,1,0,0,NA,0,522615,527432,0,522978,117602,42,0,405.013,405.376,409.83,-117.602,28.43,260.013,491.613,231.647,463.247,694.847
"rea","axc",1,"197449","rea_axc_run1_197449","AX",2800,"A","X","white","Above",1,2,0,0,NA,0,0,NA,0,529815,534632,0,0,117602,43,0,412.213,-117.602,417.03,-117.602,28.43,260.013,491.613,231.647,463.247,694.847
"rea","axc",1,"197449","rea_axc_run1_197449","BY",4000,"P","H","white","Above",1,1,0,0,NA,0,0,NA,0,538215,543032,0,0,117602,44,0,420.613,-117.602,425.43,-117.602,28.43,260.013,491.613,231.647,463.247,694.847
"rea","axc",1,"197449","rea_axc_run1_197449","BY",4000,"M","P","white","Above",1,1,0,0,NA,0,0,NA,0,547815,552632,0,0,117602,45,0,430.213,-117.602,435.03,-117.602,28.43,260.013,491.613,231.647,463.247,694.847
"rea","axc",1,"197449","rea_axc_run1_197449","Bng",1600,"T","8","red","Below",1,NA,0,0,NA,0,1,NA,0,557415,562232,0,0,117602,46,0,439.813,-117.602,444.63,-117.602,28.43,260.013,491.613,231.647,463.247,694.847
"rea","axc",1,"197449","rea_axc_run1_197449","AY",1600,"A","D","red","Below",1,1,0,0,NA,0,0,NA,0,564615,569432,0,0,117602,47,0,447.013,-117.602,451.83,-117.602,28.43,260.013,491.613,231.647,463.247,694.847
"rea","axc",1,"197449","rea_axc_run1_197449","BX",4000,"U","X","red","Below",1,1,0,0,NA,479,1,1,0,571832,576632,577111,0,117602,48,0,454.23,-117.602,459.03,459.509,28.43,260.013,491.613,231.647,463.247,694.847
"rea","axc",1,"197449","rea_axc_run1_197449","AX",2800,"A","X","white","Above",1,2,509,1,1,485,1,2,1,611415,616232,616717,611924,117602,49,1,493.813,494.322,498.63,499.115,28.43,260.013,491.613,231.647,463.247,694.847
"rea","axc",1,"197449","rea_axc_run1_197449","BY",1600,"T","N","white","Above",1,1,0,0,NA,0,0,NA,0,619815,624632,0,0,117602,50,0,502.213,-117.602,507.03,-117.602,28.43,260.013,491.613,231.647,463.247,694.847
"rea","axc",1,"197449","rea_axc_run1_197449","AX",4000,"A","X","white","Above",1,2,0,0,NA,0,0,NA,0,627015,631832,0,0,117602,51,0,509.413,-117.602,514.23,-117.602,28.43,260.013,491.613,231.647,463.247,694.847
"rea","axc",1,"197449","rea_axc_run1_197449","BX",2800,"F","X","red","Below",1,1,0,0,NA,0,0,NA,0,636615,641432,0,0,117602,52,0,519.013,-117.602,523.83,-117.602,28.43,260.013,491.613,231.647,463.247,694.847
"rea","axc",1,"197449","rea_axc_run1_197449","BY",2800,"F","C","white","Above",1,1,0,0,NA,0,0,NA,0,645015,649832,0,0,117602,53,0,527.413,-117.602,532.23,-117.602,28.43,260.013,491.613,231.647,463.247,694.847
"rea","axc",1,"197449","rea_axc_run1_197449","BY",1600,"P","M","white","Above",1,1,0,0,NA,0,0,NA,0,653415,658232,0,0,117602,54,0,535.813,-117.602,540.63,-117.602,28.43,260.013,491.613,231.647,463.247,694.847
"rea","axc",1,"197449","rea_axc_run1_197449","AX",1600,"A","X","white","Above",1,2,0,0,NA,455,0,1,0,660632,665432,665887,0,117602,55,0,543.03,-117.602,547.83,548.285,28.43,260.013,491.613,231.647,463.247,694.847
"rea","axc",1,"197449","rea_axc_run1_197449","AY",2800,"A","N","red","Below",1,1,468,1,1,655,1,1,1,667832,672615,673270,668300,117602,56,1,550.23,550.698,555.013,555.668,28.43,260.013,491.613,231.647,463.247,694.847
"rea","axc",1,"197449","rea_axc_run1_197449","BY",4000,"N","U","white","Above",1,1,452,1,1,0,0,NA,0,676232,681015,0,676684,117602,57,0,558.63,559.082,563.413,-117.602,28.43,260.013,491.613,231.647,463.247,694.847
"rea","axc",1,"197449","rea_axc_run1_197449","AX",4000,"A","X","white","Above",1,2,0,0,NA,0,0,NA,0,685832,690615,0,0,117602,58,0,568.23,-117.602,573.013,-117.602,28.43,260.013,491.613,231.647,463.247,694.847
"rea","axc",1,"197449","rea_axc_run1_197449","Ang",4000,"A","2","red","Below",1,NA,0,0,NA,0,1,NA,0,695432,700215,0,0,117602,59,0,577.83,-117.602,582.613,-117.602,28.43,260.013,491.613,231.647,463.247,694.847
"rea","axc",1,"197449","rea_axc_run1_197449","Bng",1600,"P","2","red","Below",1,NA,893,1,1,0,1,NA,1,705032,709832,0,705925,117602,60,1,587.43,588.323,592.23,-117.602,28.43,260.013,491.613,231.647,463.247,694.847
"rea","axc",1,"197449","rea_axc_run1_197449","BY",2800,"H","T","white","Above",1,1,0,0,NA,0,0,NA,0,712232,717015,0,0,117602,61,0,594.63,-117.602,599.413,-117.602,28.43,260.013,491.613,231.647,463.247,694.847
"rea","axc",1,"197449","rea_axc_run1_197449","AX",1600,"A","X","white","Above",1,2,0,0,NA,580,0,1,0,720632,725415,725995,0,117602,62,0,603.03,-117.602,607.813,608.393,28.43,260.013,491.613,231.647,463.247,694.847
"rea","axc",1,"197449","rea_axc_run1_197449","AX",2800,"A","X","white","Above",1,2,640,1,1,0,0,NA,0,727832,732632,0,728472,117602,63,0,610.23,610.87,615.03,-117.602,28.43,260.013,491.613,231.647,463.247,694.847
"rea","axc",1,"197449","rea_axc_run1_197449","BX",2800,"C","X","red","Below",1,1,0,0,NA,528,0,2,0,736232,741032,741560,0,117602,64,0,618.63,-117.602,623.43,623.958,28.43,260.013,491.613,231.647,463.247,694.847
"rea","axc",1,"197449","rea_axc_run1_197449","Bng",4000,"F","3","red","Below",1,NA,0,0,NA,929,0,1,0,744615,749432,750361,0,117602,65,0,627.013,-117.602,631.83,632.759,28.43,260.013,491.613,231.647,463.247,694.847
"rea","axc",1,"197449","rea_axc_run1_197449","AY",2800,"A","T","red","Below",1,1,509,1,1,0,0,NA,0,754232,759032,0,754741,117602,66,0,636.63,637.139,641.43,-117.602,28.43,260.013,491.613,231.647,463.247,694.847
"rea","axc",1,"197449","rea_axc_run1_197449","Ang",1600,"A","6","red","Below",1,NA,0,0,NA,0,1,NA,0,762632,767432,0,0,117602,67,0,645.03,-117.602,649.83,-117.602,28.43,260.013,491.613,231.647,463.247,694.847
"rea","axc",1,"197449","rea_axc_run1_197449","BY",4000,"F","C","white","Above",1,1,0,0,NA,829,1,1,0,769815,774632,775461,0,117602,68,0,652.213,-117.602,657.03,657.859,28.43,260.013,491.613,231.647,463.247,694.847
"rea","axc",1,"197449","rea_axc_run1_197449","AX",1600,"A","X","white","Above",1,2,449,1,1,753,1,2,1,779415,784232,784985,779864,117602,69,1,661.813,662.262,666.63,667.383,28.43,260.013,491.613,231.647,463.247,694.847
"rea","axc",1,"197449","rea_axc_run1_197449","AX",1600,"A","X","white","Above",1,2,0,0,NA,0,0,NA,0,786615,791432,0,0,117602,70,0,669.013,-117.602,673.83,-117.602,28.43,260.013,491.613,231.647,463.247,694.847
"rea","axc",1,"197449","rea_axc_run1_197449","BY",4000,"M","F","white","Above",1,1,0,0,NA,0,0,NA,0,793832,798632,0,0,117602,71,0,676.23,-117.602,681.03,-117.602,28.43,260.013,491.613,231.647,463.247,694.847
"rea","axc",1,"197449","rea_axc_run1_197449","BY",4000,"H","U","white","Above",1,1,0,0,NA,542,1,1,0,803432,808232,808774,0,117602,72,0,685.83,-117.602,690.63,691.172,28.43,260.013,491.613,231.647,463.247,694.847
"rea","axc",2,"197449","rea_axc_run2_197449","Bng",1600,"M","9","red","Below",1,NA,1190,1,1,0,1,NA,1,66844,71660,0,68034,36222,1,1,30.622,31.812,35.438,-36.222,28.438,260.038,491.638,231.638,463.238,694.838
"rea","axc",2,"197449","rea_axc_run2_197449","AX",2800,"A","X","white","Above",1,2,546,1,1,790,1,2,1,74060,78860,79650,74606,36222,2,1,37.838,38.384,42.638,43.428,28.438,260.038,491.638,231.638,463.238,694.838
"rea","axc",2,"197449","rea_axc_run2_197449","BY",4000,"U","T","white","Above",1,1,503,1,1,572,0,2,0,82460,87260,87832,82963,36222,3,0,46.238,46.741,51.038,51.61,28.438,260.038,491.638,231.638,463.238,694.838
"rea","axc",2,"197449","rea_axc_run2_197449","AX",1600,"A","X","white","Above",1,2,419,1,1,769,1,2,1,92060,96860,97629,92479,36222,4,1,55.838,56.257,60.638,61.407,28.438,260.038,491.638,231.638,463.238,694.838
"rea","axc",2,"197449","rea_axc_run2_197449","BY",4000,"M","U","white","Above",1,1,0,0,NA,0,0,NA,0,99260,104044,0,0,36222,5,0,63.038,-36.222,67.822,-36.222,28.438,260.038,491.638,231.638,463.238,694.838
"rea","axc",2,"197449","rea_axc_run2_197449","AY",1600,"A","M","red","Below",1,1,0,0,NA,1214,1,1,0,108860,113644,114858,0,36222,6,0,72.638,-36.222,77.422,78.636,28.438,260.038,491.638,231.638,463.238,694.838
"rea","axc",2,"197449","rea_axc_run2_197449","Ang",1600,"A","3","red","Below",1,NA,0,0,NA,0,1,NA,0,116060,120844,0,0,36222,7,0,79.838,-36.222,84.622,-36.222,28.438,260.038,491.638,231.638,463.238,694.838
"rea","axc",2,"197449","rea_axc_run2_197449","AX",2800,"A","X","white","Above",1,2,799,1,1,0,0,NA,0,123260,128060,0,124059,36222,8,0,87.038,87.837,91.838,-36.222,28.438,260.038,491.638,231.638,463.238,694.838
"rea","axc",2,"197449","rea_axc_run2_197449","AX",2800,"A","X","white","Above",1,2,0,0,NA,0,0,NA,0,131660,136460,0,0,36222,9,0,95.438,-36.222,100.238,-36.222,28.438,260.038,491.638,231.638,463.238,694.838
"rea","axc",2,"197449","rea_axc_run2_197449","AX",2800,"A","X","white","Above",1,2,0,0,NA,0,0,NA,0,140044,144860,0,0,36222,10,0,103.822,-36.222,108.638,-36.222,28.438,260.038,491.638,231.638,463.238,694.838
"rea","axc",2,"197449","rea_axc_run2_197449","BX",4000,"D","X","red","Below",1,1,557,1,1,835,1,1,1,148444,153260,154095,149001,36222,11,1,112.222,112.779,117.038,117.873,28.438,260.038,491.638,231.638,463.238,694.838
"rea","axc",2,"197449","rea_axc_run2_197449","BY",4000,"D","C","white","Above",1,1,589,1,1,0,0,NA,0,158044,162860,0,158633,36222,12,0,121.822,122.411,126.638,-36.222,28.438,260.038,491.638,231.638,463.238,694.838
"rea","axc",2,"197449","rea_axc_run2_197449","BY",2800,"D","U","white","Above",1,1,0,0,NA,0,0,NA,0,167660,172460,0,0,36222,13,0,131.438,-36.222,136.238,-36.222,28.438,260.038,491.638,231.638,463.238,694.838
"rea","axc",2,"197449","rea_axc_run2_197449","BX",2800,"H","X","red","Below",1,1,0,0,NA,0,0,NA,0,176060,180860,0,0,36222,14,0,139.838,-36.222,144.638,-36.222,28.438,260.038,491.638,231.638,463.238,694.838
"rea","axc",2,"197449","rea_axc_run2_197449","BY",4000,"N","H","white","Above",1,1,540,1,1,1204,1,1,1,184444,189260,190464,184984,36222,15,1,148.222,148.762,153.038,154.242,28.438,260.038,491.638,231.638,463.238,694.838
"rea","axc",2,"197449","rea_axc_run2_197449","BY",4000,"H","C","white","Above",1,1,0,0,NA,0,0,NA,0,194060,198860,0,0,36222,16,0,157.838,-36.222,162.638,-36.222,28.438,260.038,491.638,231.638,463.238,694.838
"rea","axc",2,"197449","rea_axc_run2_197449","AX",1600,"A","X","white","Above",1,2,739,1,1,677,0,1,0,203660,208444,209121,204399,36222,17,0,167.438,168.177,172.222,172.899,28.438,260.038,491.638,231.638,463.238,694.838
"rea","axc",2,"197449","rea_axc_run2_197449","AX",1600,"A","X","white","Above",1,2,0,0,NA,0,0,NA,0,210844,215660,0,0,36222,18,0,174.622,-36.222,179.438,-36.222,28.438,260.038,491.638,231.638,463.238,694.838
"rea","axc",2,"197449","rea_axc_run2_197449","AX",1600,"A","X","white","Above",1,2,0,0,NA,0,0,NA,0,218044,222860,0,0,36222,19,0,181.822,-36.222,186.638,-36.222,28.438,260.038,491.638,231.638,463.238,694.838
"rea","axc",2,"197449","rea_axc_run2_197449","Bng",2800,"P","9","red","Below",1,NA,0,0,NA,0,1,NA,0,225260,230060,0,0,36222,20,0,189.038,-36.222,193.838,-36.222,28.438,260.038,491.638,231.638,463.238,694.838
"rea","axc",2,"197449","rea_axc_run2_197449","BY",2800,"C","F","white","Above",1,1,393,1,1,0,0,NA,0,233660,238460,0,234053,36222,21,0,197.438,197.831,202.238,-36.222,28.438,260.038,491.638,231.638,463.238,694.838
"rea","axc",2,"197449","rea_axc_run2_197449","AY",4000,"A","C","red","Below",1,1,0,0,NA,0,0,NA,0,242060,246844,0,0,36222,22,0,205.838,-36.222,210.622,-36.222,28.438,260.038,491.638,231.638,463.238,694.838
"rea","axc",2,"197449","rea_axc_run2_197449","BY",4000,"F","D","white","Above",1,1,0,0,NA,0,0,NA,0,251660,256460,0,0,36222,23,0,215.438,-36.222,220.238,-36.222,28.438,260.038,491.638,231.638,463.238,694.838
"rea","axc",2,"197449","rea_axc_run2_197449","Ang",1600,"A","5","red","Below",1,NA,0,0,NA,0,1,NA,0,261260,266060,0,0,36222,24,0,225.038,-36.222,229.838,-36.222,28.438,260.038,491.638,231.638,463.238,694.838
"rea","axc",2,"197449","rea_axc_run2_197449","Ang",4000,"A","7","red","Below",1,NA,0,0,NA,0,1,NA,0,298444,303260,0,0,36222,25,0,262.222,-36.222,267.038,-36.222,28.438,260.038,491.638,231.638,463.238,694.838
"rea","axc",2,"197449","rea_axc_run2_197449","AX",2800,"A","X","white","Above",1,2,390,1,1,606,1,2,1,308044,312860,313466,308434,36222,26,1,271.822,272.212,276.638,277.244,28.438,260.038,491.638,231.638,463.238,694.838
"rea","axc",2,"197449","rea_axc_run2_197449","BY",2800,"C","N","white","Above",1,1,0,0,NA,0,0,NA,0,316444,321260,0,0,36222,27,0,280.222,-36.222,285.038,-36.222,28.438,260.038,491.638,231.638,463.238,694.838
"rea","axc",2,"197449","rea_axc_run2_197449","AY",1600,"A","F","red","Below",1,1,0,0,NA,0,0,NA,0,324844,329660,0,0,36222,28,0,288.622,-36.222,293.438,-36.222,28.438,260.038,491.638,231.638,463.238,694.838
"rea","axc",2,"197449","rea_axc_run2_197449","BY",1600,"F","H","white","Above",1,1,0,0,NA,0,0,NA,0,332060,336860,0,0,36222,29,0,295.838,-36.222,300.638,-36.222,28.438,260.038,491.638,231.638,463.238,694.838
"rea","axc",2,"197449","rea_axc_run2_197449","AX",4000,"A","X","white","Above",1,2,0,0,NA,0,0,NA,0,339260,344044,0,0,36222,30,0,303.038,-36.222,307.822,-36.222,28.438,260.038,491.638,231.638,463.238,694.838
"rea","axc",2,"197449","rea_axc_run2_197449","AX",1600,"A","X","white","Above",1,2,0,0,NA,0,0,NA,0,348860,353660,0,0,36222,31,0,312.638,-36.222,317.438,-36.222,28.438,260.038,491.638,231.638,463.238,694.838
"rea","axc",2,"197449","rea_axc_run2_197449","BX",1600,"N","X","red","Below",1,1,594,1,1,944,1,1,1,356060,360844,361788,356654,36222,32,1,319.838,320.432,324.622,325.566,28.438,260.038,491.638,231.638,463.238,694.838
"rea","axc",2,"197449","rea_axc_run2_197449","AY",4000,"A","U","red","Below",1,1,0,0,NA,518,1,1,0,363260,368060,368578,0,36222,33,0,327.038,-36.222,331.838,332.356,28.438,260.038,491.638,231.638,463.238,694.838
"rea","axc",2,"197449","rea_axc_run2_197449","BY",4000,"U","F","white","Above",1,1,0,0,NA,0,0,NA,0,372860,377644,0,0,36222,34,0,336.638,-36.222,341.422,-36.222,28.438,260.038,491.638,231.638,463.238,694.838
"rea","axc",2,"197449","rea_axc_run2_197449","BY",2800,"P","T","white","Above",1,1,0,0,NA,0,0,NA,0,382460,387244,0,0,36222,35,0,346.238,-36.222,351.022,-36.222,28.438,260.038,491.638,231.638,463.238,694.838
"rea","axc",2,"197449","rea_axc_run2_197449","Bng",2800,"F","5","red","Below",1,NA,0,0,NA,0,1,NA,0,390860,395644,0,0,36222,36,0,354.638,-36.222,359.422,-36.222,28.438,260.038,491.638,231.638,463.238,694.838
"rea","axc",2,"197449","rea_axc_run2_197449","Bng",1600,"U","7","red","Below",1,NA,1072,1,1,0,1,NA,1,399260,404044,0,400332,36222,37,1,363.038,364.11,367.822,-36.222,28.438,260.038,491.638,231.638,463.238,694.838
"rea","axc",2,"197449","rea_axc_run2_197449","BY",1600,"M","N","white","Above",1,1,0,0,NA,0,0,NA,0,406444,411260,0,0,36222,38,0,370.222,-36.222,375.038,-36.222,28.438,260.038,491.638,231.638,463.238,694.838
"rea","axc",2,"197449","rea_axc_run2_197449","BY",4000,"T","H","white","Above",1,1,0,0,NA,0,0,NA,0,413644,418460,0,0,36222,39,0,377.422,-36.222,382.238,-36.222,28.438,260.038,491.638,231.638,463.238,694.838
"rea","axc",2,"197449","rea_axc_run2_197449","AX",4000,"A","X","white","Above",1,2,0,0,NA,0,0,NA,0,423244,428060,0,0,36222,40,0,387.022,-36.222,391.838,-36.222,28.438,260.038,491.638,231.638,463.238,694.838
"rea","axc",2,"197449","rea_axc_run2_197449","BY",1600,"H","F","white","Above",1,1,0,0,NA,0,0,NA,0,432844,437660,0,0,36222,41,0,396.622,-36.222,401.438,-36.222,28.438,260.038,491.638,231.638,463.238,694.838
"rea","axc",2,"197449","rea_axc_run2_197449","AX",4000,"A","X","white","Above",1,2,0,0,NA,0,0,NA,0,440044,444860,0,0,36222,42,0,403.822,-36.222,408.638,-36.222,28.438,260.038,491.638,231.638,463.238,694.838
"rea","axc",2,"197449","rea_axc_run2_197449","Ang",1600,"A","1","red","Below",1,NA,0,0,NA,0,1,NA,0,449644,454460,0,0,36222,43,0,413.422,-36.222,418.238,-36.222,28.438,260.038,491.638,231.638,463.238,694.838
"rea","axc",2,"197449","rea_axc_run2_197449","AX",2800,"A","X","white","Above",1,2,0,0,NA,0,0,NA,0,456860,461660,0,0,36222,44,0,420.638,-36.222,425.438,-36.222,28.438,260.038,491.638,231.638,463.238,694.838
"rea","axc",2,"197449","rea_axc_run2_197449","BY",2800,"P","C","white","Above",1,1,0,0,NA,420,1,1,0,465260,470060,470480,0,36222,45,0,429.038,-36.222,433.838,434.258,28.438,260.038,491.638,231.638,463.238,694.838
"rea","axc",2,"197449","rea_axc_run2_197449","AX",2800,"A","X","white","Above",1,2,387,1,1,290,1,2,1,473660,478460,478750,474047,36222,46,1,437.438,437.825,442.238,442.528,28.438,260.038,491.638,231.638,463.238,694.838
"rea","axc",2,"197449","rea_axc_run2_197449","AX",4000,"A","X","white","Above",1,2,0,0,NA,0,0,NA,0,482060,486844,0,0,36222,47,0,445.838,-36.222,450.622,-36.222,28.438,260.038,491.638,231.638,463.238,694.838
"rea","axc",2,"197449","rea_axc_run2_197449","BX",2800,"T","X","red","Below",1,1,0,0,NA,0,0,NA,0,491660,496460,0,0,36222,48,0,455.438,-36.222,460.238,-36.222,28.438,260.038,491.638,231.638,463.238,694.838
"rea","axc",2,"197449","rea_axc_run2_197449","AY",2800,"A","P","red","Below",1,1,0,0,NA,0,0,NA,0,530044,534860,0,0,36222,49,0,493.822,-36.222,498.638,-36.222,28.438,260.038,491.638,231.638,463.238,694.838
"rea","axc",2,"197449","rea_axc_run2_197449","AX",1600,"A","X","white","Above",1,2,0,0,NA,400,0,1,0,538444,543260,543660,0,36222,50,0,502.222,-36.222,507.038,507.438,28.438,260.038,491.638,231.638,463.238,694.838
"rea","axc",2,"197449","rea_axc_run2_197449","BY",2800,"N","D","white","Above",1,1,320,1,1,562,1,1,1,545660,550460,551022,545980,36222,51,1,509.438,509.758,514.238,514.8,28.438,260.038,491.638,231.638,463.238,694.838
"rea","axc",2,"197449","rea_axc_run2_197449","BY",2800,"T","P","white","Above",1,1,0,0,NA,0,0,NA,0,554060,558860,0,0,36222,52,0,517.838,-36.222,522.638,-36.222,28.438,260.038,491.638,231.638,463.238,694.838
"rea","axc",2,"197449","rea_axc_run2_197449","BY",2800,"T","H","white","Above",1,1,0,0,NA,0,0,NA,0,562460,567260,0,0,36222,53,0,526.238,-36.222,531.038,-36.222,28.438,260.038,491.638,231.638,463.238,694.838
"rea","axc",2,"197449","rea_axc_run2_197449","AX",1600,"A","X","white","Above",1,2,0,0,NA,0,0,NA,0,570860,575644,0,0,36222,54,0,534.638,-36.222,539.422,-36.222,28.438,260.038,491.638,231.638,463.238,694.838
"rea","axc",2,"197449","rea_axc_run2_197449","Ang",4000,"A","9","red","Below",1,NA,681,1,1,0,1,NA,1,578060,582844,0,578741,36222,55,1,541.838,542.519,546.622,-36.222,28.438,260.038,491.638,231.638,463.238,694.838
"rea","axc",2,"197449","rea_axc_run2_197449","BX",4000,"H","X","red","Below",1,1,0,0,NA,0,0,NA,0,587660,592444,0,0,36222,56,0,551.438,-36.222,556.222,-36.222,28.438,260.038,491.638,231.638,463.238,694.838
"rea","axc",2,"197449","rea_axc_run2_197449","BY",4000,"H","C","white","Above",1,1,0,0,NA,0,0,NA,0,597260,602044,0,0,36222,57,0,561.038,-36.222,565.822,-36.222,28.438,260.038,491.638,231.638,463.238,694.838
"rea","axc",2,"197449","rea_axc_run2_197449","BY",4000,"F","H","white","Above",1,1,0,0,NA,0,0,NA,0,606860,611660,0,0,36222,58,0,570.638,-36.222,575.438,-36.222,28.438,260.038,491.638,231.638,463.238,694.838
"rea","axc",2,"197449","rea_axc_run2_197449","AX",1600,"A","X","white","Above",1,2,0,0,NA,1156,1,2,0,616460,621260,622416,0,36222,59,0,580.238,-36.222,585.038,586.194,28.438,260.038,491.638,231.638,463.238,694.838
"rea","axc",2,"197449","rea_axc_run2_197449","BY",1600,"U","F","white","Above",1,1,0,0,NA,0,0,NA,0,623660,628444,0,0,36222,60,0,587.438,-36.222,592.222,-36.222,28.438,260.038,491.638,231.638,463.238,694.838
"rea","axc",2,"197449","rea_axc_run2_197449","AY",2800,"A","M","red","Below",1,1,0,0,NA,0,0,NA,0,630860,635644,0,0,36222,61,0,594.638,-36.222,599.422,-36.222,28.438,260.038,491.638,231.638,463.238,694.838
"rea","axc",2,"197449","rea_axc_run2_197449","AX",2800,"A","X","white","Above",1,2,0,0,NA,0,0,NA,0,639260,644044,0,0,36222,62,0,603.038,-36.222,607.822,-36.222,28.438,260.038,491.638,231.638,463.238,694.838
"rea","axc",2,"197449","rea_axc_run2_197449","Bng",4000,"C","6","red","Below",1,NA,0,0,NA,0,1,NA,0,647660,652444,0,0,36222,63,0,611.438,-36.222,616.222,-36.222,28.438,260.038,491.638,231.638,463.238,694.838
"rea","axc",2,"197449","rea_axc_run2_197449","AX",1600,"A","X","white","Above",1,2,0,0,NA,0,0,NA,0,657260,662044,0,0,36222,64,0,621.038,-36.222,625.822,-36.222,28.438,260.038,491.638,231.638,463.238,694.838
"rea","axc",2,"197449","rea_axc_run2_197449","BY",2800,"N","H","white","Above",1,1,0,0,NA,0,0,NA,0,664444,669260,0,0,36222,65,0,628.222,-36.222,633.038,-36.222,28.438,260.038,491.638,231.638,463.238,694.838
"rea","axc",2,"197449","rea_axc_run2_197449","Bng",4000,"N","3","red","Below",1,NA,0,0,NA,0,1,NA,0,672844,677660,0,0,36222,66,0,636.622,-36.222,641.438,-36.222,28.438,260.038,491.638,231.638,463.238,694.838
"rea","axc",2,"197449","rea_axc_run2_197449","AX",1600,"A","X","white","Above",1,2,0,0,NA,0,0,NA,0,682460,687260,0,0,36222,67,0,646.238,-36.222,651.038,-36.222,28.438,260.038,491.638,231.638,463.238,694.838
"rea","axc",2,"197449","rea_axc_run2_197449","BY",4000,"F","D","white","Above",1,1,0,0,NA,0,0,NA,0,689644,694460,0,0,36222,68,0,653.422,-36.222,658.238,-36.222,28.438,260.038,491.638,231.638,463.238,694.838
"rea","axc",2,"197449","rea_axc_run2_197449","AX",1600,"A","X","white","Above",1,2,0,0,NA,0,0,NA,0,699244,704060,0,0,36222,69,0,663.022,-36.222,667.838,-36.222,28.438,260.038,491.638,231.638,463.238,694.838
"rea","axc",2,"197449","rea_axc_run2_197449","Ang",4000,"A","9","red","Below",1,NA,0,0,NA,0,1,NA,0,706444,711260,0,0,36222,70,0,670.222,-36.222,675.038,-36.222,28.438,260.038,491.638,231.638,463.238,694.838
"rea","axc",2,"197449","rea_axc_run2_197449","AX",2800,"A","X","white","Above",1,2,0,0,NA,0,0,NA,0,716044,720860,0,0,36222,71,0,679.822,-36.222,684.638,-36.222,28.438,260.038,491.638,231.638,463.238,694.838
"rea","axc",2,"197449","rea_axc_run2_197449","BX",1600,"N","X","red","Below",1,1,0,0,NA,577,0,2,0,724444,729260,729837,0,36222,72,0,688.222,-36.222,693.038,693.615,28.438,260.038,491.638,231.638,463.238,694.838
"bas","axc",1,"672756","bas_axc_run1_672756","Ang",4000,"A","7","white","center",1,NA,216,1,1,0,1,NA,1,148889,153703,0,149105,118256,1,1,30.633,30.849,35.447,-118.256,28.433,260.047,491.647,231.633,463.247,694.847
"bas","axc",1,"672756","bas_axc_run1_672756","BY",2800,"H","T","white","center",1,1,353,1,1,283,1,1,1,158503,163303,163586,158856,118256,2,1,40.247,40.6,45.047,45.33,28.433,260.047,491.647,231.633,463.247,694.847
"bas","axc",1,"672756","bas_axc_run1_672756","AX",1600,"A","X","white","center",1,2,254,1,1,334,1,2,1,166903,171703,172037,167157,118256,3,1,48.647,48.901,53.447,53.781,28.433,260.047,491.647,231.633,463.247,694.847
"bas","axc",1,"672756","bas_axc_run1_672756","BY",2800,"D","T","white","center",1,1,281,1,1,371,1,1,1,174103,178889,179260,174384,118256,4,1,55.847,56.128,60.633,61.004,28.433,260.047,491.647,231.633,463.247,694.847
"bas","axc",1,"672756","bas_axc_run1_672756","BY",4000,"F","C","white","center",1,1,274,1,1,359,1,1,1,182489,187289,187648,182763,118256,5,1,64.233,64.507,69.033,69.392,28.433,260.047,491.647,231.633,463.247,694.847
"bas","axc",1,"672756","bas_axc_run1_672756","BY",1600,"F","M","white","center",1,1,355,1,1,345,1,1,1,192089,196903,197248,192444,118256,6,1,73.833,74.188,78.647,78.992,28.433,260.047,491.647,231.633,463.247,694.847
"bas","axc",1,"672756","bas_axc_run1_672756","BX",2800,"M","X","white","center",1,1,271,1,1,357,1,1,1,199303,204103,204460,199574,118256,7,1,81.047,81.318,85.847,86.204,28.433,260.047,491.647,231.633,463.247,694.847
"bas","axc",1,"672756","bas_axc_run1_672756","AX",1600,"A","X","white","center",1,2,321,1,1,259,1,2,1,207703,212503,212762,208024,118256,8,1,89.447,89.768,94.247,94.506,28.433,260.047,491.647,231.633,463.247,694.847
"bas","axc",1,"672756","bas_axc_run1_672756","BY",1600,"M","F","white","center",1,1,329,1,1,432,1,1,1,214903,219689,220121,215232,118256,9,1,96.647,96.976,101.433,101.865,28.433,260.047,491.647,231.633,463.247,694.847
"bas","axc",1,"672756","bas_axc_run1_672756","AX",2800,"A","X","white","center",1,2,627,1,1,277,1,2,1,222089,226889,227166,222716,118256,10,1,103.833,104.46,108.633,108.91,28.433,260.047,491.647,231.633,463.247,694.847
"bas","axc",1,"672756","bas_axc_run1_672756","AX",4000,"A","X","white","center",1,2,249,1,1,235,1,2,1,230489,235303,235538,230738,118256,11,1,112.233,112.482,117.047,117.282,28.433,260.047,491.647,231.633,463.247,694.847
"bas","axc",1,"672756","bas_axc_run1_672756","AX",4000,"A","X","white","center",1,2,331,1,1,343,1,2,1,240103,244903,245246,240434,118256,12,1,121.847,122.178,126.647,126.99,28.433,260.047,491.647,231.633,463.247,694.847
"bas","axc",1,"672756","bas_axc_run1_672756","AX",1600,"A","X","white","center",1,2,273,1,1,369,1,2,1,249703,254503,254872,249976,118256,13,1,131.447,131.72,136.247,136.616,28.433,260.047,491.647,231.633,463.247,694.847
"bas","axc",1,"672756","bas_axc_run1_672756","AX",4000,"A","X","white","center",1,2,1206,1,1,284,0,1,0,256903,261689,261973,258109,118256,14,0,138.647,139.853,143.433,143.717,28.433,260.047,491.647,231.633,463.247,694.847
"bas","axc",1,"672756","bas_axc_run1_672756","BY",1600,"C","M","white","center",1,1,490,1,1,338,1,1,1,266489,271289,271627,266979,118256,15,1,148.233,148.723,153.033,153.371,28.433,260.047,491.647,231.633,463.247,694.847
"bas","axc",1,"672756","bas_axc_run1_672756","BY",4000,"M","P","white","center",1,1,322,1,1,390,1,1,1,273689,278503,278893,274011,118256,16,1,155.433,155.755,160.247,160.637,28.433,260.047,491.647,231.633,463.247,694.847
"bas","axc",1,"672756","bas_axc_run1_672756","BX",2800,"C","X","white","center",1,1,242,1,1,485,1,1,1,283303,288103,288588,283545,118256,17,1,165.047,165.289,169.847,170.332,28.433,260.047,491.647,231.633,463.247,694.847
"bas","axc",1,"672756","bas_axc_run1_672756","AY",2800,"A","N","white","center",1,1,382,1,1,480,1,1,1,291703,296503,296983,292085,118256,18,1,173.447,173.829,178.247,178.727,28.433,260.047,491.647,231.633,463.247,694.847
"bas","axc",1,"672756","bas_axc_run1_672756","AY",2800,"A","H","white","center",1,1,332,1,1,441,1,1,1,300103,304889,305330,300435,118256,19,1,181.847,182.179,186.633,187.074,28.433,260.047,491.647,231.633,463.247,694.847
"bas","axc",1,"672756","bas_axc_run1_672756","BY",1600,"N","U","white","center",1,1,995,1,1,443,1,1,1,308489,313289,313732,309484,118256,20,1,190.233,191.228,195.033,195.476,28.433,260.047,491.647,231.633,463.247,694.847
"bas","axc",1,"672756","bas_axc_run1_672756","Bng",4000,"U","5","white","center",1,NA,0,0,NA,183,0,1,0,315703,320503,320686,0,118256,21,0,197.447,-118.256,202.247,202.43,28.433,260.047,491.647,231.633,463.247,694.847
"bas","axc",1,"672756","bas_axc_run1_672756","AX",2800,"A","X","white","center",1,2,270,1,1,211,1,2,1,325303,330103,330314,325573,118256,22,1,207.047,207.317,211.847,212.058,28.433,260.047,491.647,231.633,463.247,694.847
"bas","axc",1,"672756","bas_axc_run1_672756","Ang",4000,"A","5","white","center",1,NA,233,1,1,494,0,1,0,333703,338503,338997,333936,118256,23,0,215.447,215.68,220.247,220.741,28.433,260.047,491.647,231.633,463.247,694.847
"bas","axc",1,"672756","bas_axc_run1_672756","Bng",1600,"M","9","white","center",1,NA,269,1,1,0,1,NA,1,343289,348089,0,343558,118256,24,1,225.033,225.302,229.833,-118.256,28.433,260.047,491.647,231.633,463.247,694.847
"bas","axc",1,"672756","bas_axc_run1_672756","BY",4000,"H","U","white","center",1,1,267,1,1,312,1,1,1,380503,385290,385602,380770,118256,25,1,262.247,262.514,267.034,267.346,28.433,260.047,491.647,231.633,463.247,694.847
"bas","axc",1,"672756","bas_axc_run1_672756","AX",4000,"A","X","white","center",1,2,648,1,1,313,1,2,1,390090,394890,395203,390738,118256,26,1,271.834,272.482,276.634,276.947,28.433,260.047,491.647,231.633,463.247,694.847
"bas","axc",1,"672756","bas_axc_run1_672756","BX",2800,"P","X","white","center",1,1,377,1,1,662,0,2,0,399703,404503,405165,400080,118256,27,0,281.447,281.824,286.247,286.909,28.433,260.047,491.647,231.633,463.247,694.847
"bas","axc",1,"672756","bas_axc_run1_672756","Bng",4000,"H","8","white","center",1,NA,203,1,1,383,0,1,0,408103,412903,413286,408306,118256,28,0,289.847,290.05,294.647,295.03,28.433,260.047,491.647,231.633,463.247,694.847
"bas","axc",1,"672756","bas_axc_run1_672756","BY",1600,"U","D","white","center",1,1,301,1,1,473,1,1,1,417703,422490,422963,418004,118256,29,1,299.447,299.748,304.234,304.707,28.433,260.047,491.647,231.633,463.247,694.847
"bas","axc",1,"672756","bas_axc_run1_672756","AX",1600,"A","X","white","center",1,2,318,1,1,319,1,2,1,424890,429690,430009,425208,118256,30,1,306.634,306.952,311.434,311.753,28.433,260.047,491.647,231.633,463.247,694.847
"bas","axc",1,"672756","bas_axc_run1_672756","AX",1600,"A","X","white","center",1,2,811,1,1,472,1,2,1,432090,436903,437375,432901,118256,31,1,313.834,314.645,318.647,319.119,28.433,260.047,491.647,231.633,463.247,694.847
"bas","axc",1,"672756","bas_axc_run1_672756","BY",1600,"D","N","white","center",1,1,337,1,1,403,1,1,1,439303,444103,444506,439640,118256,32,1,321.047,321.384,325.847,326.25,28.433,260.047,491.647,231.633,463.247,694.847
"bas","axc",1,"672756","bas_axc_run1_672756","BY",2800,"P","H","white","center",1,1,569,1,1,433,1,1,1,446503,451303,451736,447072,118256,33,1,328.247,328.816,333.047,333.48,28.433,260.047,491.647,231.633,463.247,694.847
"bas","axc",1,"672756","bas_axc_run1_672756","AX",2800,"A","X","white","center",1,2,746,1,1,386,1,2,1,454903,459703,460089,455649,118256,34,1,336.647,337.393,341.447,341.833,28.433,260.047,491.647,231.633,463.247,694.847
"bas","axc",1,"672756","bas_axc_run1_672756","AY",2800,"A","D","white","center",1,1,316,1,1,397,1,1,1,463290,468090,468487,463606,118256,35,1,345.034,345.35,349.834,350.231,28.433,260.047,491.647,231.633,463.247,694.847
